aX,aY,aZ,gX,gY,gZ
-0.485,0.521,-1.869,85.022,-31.067,50.232
-0.558,0.558,-1.806,82.581,-65.857,54.260
-0.582,0.579,-1.721,74.463,-105.164,66.711
-0.561,0.560,-1.629,65.125,-140.442,84.229
-0.526,0.531,-1.521,58.472,-165.405,103.821
-0.486,0.531,-1.399,47.729,-183.411,128.601
-0.481,0.563,-1.261,37.781,-194.763,153.137
-0.457,0.632,-1.118,25.391,-198.364,174.988
-0.398,0.734,-1.003,11.108,-193.115,191.772
-0.370,0.802,-0.918,-8.972,-180.237,204.407
-0.397,0.801,-0.773,-24.719,-167.664,212.219
-0.299,0.824,-0.559,-39.795,-164.917,210.754
-0.297,0.846,-0.251,-65.430,-177.246,195.496
-0.309,0.888,0.113,-85.205,-202.637,161.926
-0.266,0.947,0.570,-93.384,-238.281,109.436
-0.242,0.976,1.016,-83.374,-275.696,40.466
-0.331,0.988,1.385,-46.509,-310.913,-40.955
-0.383,0.962,1.574,12.512,-338.623,-117.249
-0.314,0.956,1.586,60.303,-346.558,-147.034
-0.232,0.993,1.490,77.942,-329.285,-108.215
-0.047,1.124,1.483,62.012,-289.795,-19.531
0.096,1.344,1.578,20.386,-232.117,86.365
0.341,1.543,1.718,-12.817,-167.725,181.519
0.721,1.709,1.739,-24.109,-109.131,243.713
1.149,1.851,1.648,-13.123,-69.824,254.578
1.480,1.848,1.444,13.672,-61.157,212.219
1.660,1.733,1.153,48.523,-73.608,135.986
1.634,1.635,0.830,71.899,-82.764,57.678
1.511,1.551,0.542,71.960,-81.421,-4.211
1.283,1.404,0.329,60.913,-69.397,-35.156
1.049,1.220,0.145,43.762,-47.546,-41.748
0.867,1.036,0.009,19.714,-20.325,-34.058
0.725,0.869,-0.050,-3.296,1.404,-21.118
0.616,0.729,-0.060,-21.729,14.160,-10.315
0.520,0.619,-0.063,-36.011,18.555,-5.981
0.435,0.569,-0.054,-40.222,18.494,-5.371
0.362,0.559,-0.061,-34.424,17.944,-5.981
0.322,0.586,-0.098,-22.400,16.907,-7.202
0.294,0.642,-0.136,-9.338,14.709,-7.568
0.307,0.713,-0.164,-0.488,11.719,-6.653
0.350,0.768,-0.190,4.028,9.338,-5.432
0.391,0.797,-0.225,5.859,7.751,-5.676
0.405,0.808,-0.264,6.226,7.935,-9.155
0.395,0.811,-0.287,3.235,7.935,-16.296
0.364,0.811,-0.285,-2.380,6.897,-23.437
0.335,0.804,-0.254,-9.033,5.310,-28.687
0.330,0.792,-0.206,-15.137,4.272,-31.494
0.329,0.769,-0.155,-19.043,4.395,-33.081
0.288,0.737,-0.119,-19.897,6.104,-34.546
0.373,0.748,-0.107,-20.081,8.118,-35.767
0.350,0.725,-0.120,-18.677,13.672,-35.645
0.402,0.743,-0.115,-16.724,17.517,-39.795
0.410,0.757,-0.090,-15.625,14.343,-33.630
0.448,0.761,-0.099,-14.832,12.146,-27.954
0.502,0.773,-0.100,-15.381,15.076,-25.574
0.534,0.784,-0.078,-15.564,17.456,-20.569
0.564,0.806,-0.049,-16.235,20.081,-16.052
0.590,0.830,-0.018,-18.494,23.804,-13.916
0.590,0.849,0.009,-19.592,28.076,-13.916
0.587,0.863,0.022,-19.226,33.447,-15.625
0.576,0.870,0.023,-17.761,39.124,-19.409
0.558,0.871,0.018,-15.442,42.603,-23.437
0.543,0.849,-0.002,-11.108,44.861,-27.954
0.530,0.831,-0.030,-6.836,47.485,-31.982
0.505,0.840,-0.040,-5.615,51.331,-33.447
0.486,0.861,-0.037,-5.859,55.969,-32.471
0.482,0.876,-0.047,-5.737,61.218,-30.090
0.473,0.875,-0.080,-5.188,67.322,-26.978
0.458,0.858,-0.115,-5.554,72.388,-25.269
0.442,0.833,-0.147,-6.714,74.158,-25.879
0.438,0.806,-0.175,-7.629,72.388,-28.442
0.444,0.796,-0.192,-7.385,68.176,-31.433
0.448,0.798,-0.197,-8.362,65.247,-34.180
0.451,0.804,-0.188,-10.986,64.087,-37.964
0.441,0.805,-0.191,-11.841,65.735,-40.955
0.436,0.787,-0.226,-10.315,67.871,-41.809
0.436,0.753,-0.287,-5.798,68.665,-42.175
0.448,0.723,-0.349,-2.502,67.505,-44.006
0.459,0.710,-0.381,-2.014,65.552,-46.265
0.480,0.717,-0.384,-3.662,62.134,-47.974
0.493,0.727,-0.386,-5.371,58.777,-49.744
0.492,0.722,-0.401,-6.409,57.617,-52.002
0.471,0.714,-0.430,-7.874,59.509,-53.711
0.463,0.700,-0.465,-9.583,60.608,-53.711
0.470,0.671,-0.513,-9.705,58.777,-52.185
0.492,0.651,-0.559,-8.301,55.908,-51.025
0.514,0.653,-0.581,-9.338,51.575,-50.354
0.508,0.656,-0.584,-11.536,47.913,-49.683
0.507,0.650,-0.578,-13.672,45.898,-50.232
0.501,0.646,-0.566,-15.991,44.922,-50.964
0.495,0.646,-0.552,-19.165,43.152,-50.659
0.502,0.639,-0.547,-22.461,41.138,-49.438
0.503,0.615,-0.536,-24.109,39.795,-47.180
0.529,0.596,-0.522,-24.597,40.649,-46.021
0.546,0.582,-0.522,-23.987,42.236,-43.457
0.553,0.572,-0.526,-23.865,42.358,-40.955
0.537,0.564,-0.542,-23.193,43.396,-39.490
0.532,0.559,-0.554,-23.132,43.091,-38.635
0.528,0.549,-0.556,-23.926,41.504,-35.767
0.527,0.537,-0.563,-24.414,40.588,-32.715
0.539,0.531,-0.565,-24.170,39.917,-30.762
0.548,0.536,-0.557,-24.658,38.574,-27.588
0.561,0.539,-0.546,-24.536,35.950,-23.987
0.576,0.529,-0.534,-21.851,34.363,-22.278
0.598,0.537,-0.524,-18.921,33.142,-22.766
0.606,0.541,-0.517,-16.541,31.128,-23.437
0.603,0.531,-0.523,-11.902,29.968,-24.597
0.610,0.525,-0.541,-7.385,29.846,-26.001
0.604,0.525,-0.569,-3.967,30.273,-24.902
0.587,0.525,-0.606,-0.488,32.532,-23.071
0.569,0.528,-0.639,0.305,36.194,-20.386
0.534,0.535,-0.653,-1.343,39.001,-16.724
0.514,0.546,-0.655,-3.235,38.574,-12.817
0.528,0.564,-0.649,-5.127,35.706,-8.545
0.535,0.575,-0.642,-5.920,31.677,-4.883
0.554,0.584,-0.640,-5.432,30.640,-3.052
0.579,0.594,-0.644,-4.639,31.433,-2.686
0.574,0.595,-0.659,-3.662,32.593,-4.150
0.554,0.583,-0.677,-2.258,32.959,-7.080
-1.174,-0.228,-2.461,216.125,-38.208,-26.489
-1.690,-0.337,-3.041,242.615,-25.024,-36.682
-1.944,-0.452,-3.512,263.367,-36.560,-29.358
-1.975,-0.480,-3.778,265.930,-80.383,2.258
-1.964,-0.408,-3.774,248.474,-138.611,50.598
-1.986,-0.280,-3.531,223.938,-185.425,104.126
-1.881,-0.119,-3.225,200.439,-208.679,157.043
-1.759,0.064,-2.890,174.622,-223.694,210.327
-1.655,0.239,-2.481,141.541,-242.187,258.606
-1.570,0.398,-1.951,112.854,-259.338,294.556
-1.467,0.597,-1.310,91.309,-274.719,313.782
-1.275,0.916,-0.548,75.195,-294.922,310.059
-1.022,1.382,0.447,68.726,-317.749,269.897
-1.001,1.863,1.895,73.425,-330.139,187.378
-0.737,2.583,3.706,76.782,-344.971,76.782
-0.716,2.589,4.000,119.080,-389.221,-47.974
-0.696,2.105,4.000,223.938,-414.185,-147.400
-0.119,1.825,4.000,203.491,-390.076,-120.483
0.669,0.922,3.730,159.546,-313.110,50.903
0.735,1.889,4.000,67.932,-217.590,230.774
0.976,2.410,4.000,-12.024,-147.461,348.389
1.671,2.224,3.005,80.322,-73.608,373.596
1.887,2.039,1.683,133.911,-50.293,288.330
1.532,2.003,0.936,115.234,-76.233,155.273
1.091,1.802,0.609,80.261,-100.952,42.053
0.581,1.515,0.289,49.744,-95.947,-10.376
0.200,1.208,0.064,27.893,-72.083,-22.705
0.247,0.931,0.109,2.502,-59.631,-16.724
0.410,0.627,0.298,-25.085,-60.852,-5.371
0.562,0.376,0.465,-37.231,-57.983,-7.874
0.637,0.200,0.539,-36.072,-44.922,-22.217
0.591,0.098,0.515,-32.043,-32.898,-36.377
0.352,0.046,0.371,-25.391,-23.560,-43.335
0.229,0.126,0.250,-22.522,-13.245,-33.936
0.156,0.319,0.178,-25.635,0.549,-2.441
0.136,0.547,0.115,-29.358,20.142,31.311
0.127,0.723,0.035,-32.104,39.551,52.429
0.128,0.802,-0.018,-29.663,46.265,54.871
0.084,0.807,-0.043,-23.987,41.931,36.011
0.042,0.758,-0.015,-17.944,33.569,3.418
0.008,0.674,0.031,-12.268,27.100,-26.367
-0.039,0.605,0.058,-9.216,25.146,-44.250
-0.071,0.582,0.052,-6.897,28.137,-48.889
-0.101,0.594,0.019,-4.639,34.119,-47.241
-0.073,0.618,-0.004,-3.723,37.170,-45.349
-0.057,0.651,-0.018,-4.700,35.278,-45.410
0.008,0.710,-0.033,-7.141,32.593,-49.316
0.027,0.773,-0.030,-9.399,27.344,-53.833
-0.035,0.820,-0.031,-7.080,18.921,-59.998
-0.115,0.872,-0.067,-2.136,11.230,-65.796
-0.137,0.920,-0.082,3.235,5.798,-68.481
-0.092,0.915,-0.065,8.118,1.953,-66.284
0.000,0.910,-0.056,9.216,0.183,-59.509
0.118,0.921,-0.012,6.042,0.366,-51.636
0.231,0.933,0.054,-0.427,2.441,-44.678
0.339,0.935,0.132,-6.958,4.944,-41.077
0.420,0.934,0.198,-10.254,5.371,-42.236
0.453,0.931,0.223,-9.277,6.226,-46.997
0.465,0.942,0.218,-6.531,9.277,-53.467
0.434,0.939,0.180,-3.418,14.893,-60.120
0.400,0.948,0.132,-0.244,19.897,-65.857
0.383,0.984,0.100,0.610,22.888,-67.505
0.380,1.027,0.090,-1.587,24.109,-64.392
0.392,1.068,0.104,-6.409,25.635,-59.082
0.436,1.104,0.135,-11.963,30.334,-51.941
0.486,1.116,0.159,-16.296,35.645,-47.241
0.538,1.118,0.153,-18.921,42.786,-44.189
0.568,1.100,0.132,-17.456,49.377,-45.166
0.585,1.093,0.105,-14.099,51.758,-51.208
0.592,1.089,0.084,-11.597,51.392,-58.594
0.564,1.077,0.080,-11.597,50.354,-65.491
0.516,1.058,0.094,-15.259,49.988,-68.970
0.479,1.054,0.111,-20.142,52.185,-67.749
0.446,1.051,0.096,-22.339,56.152,-63.965
0.487,1.015,0.052,-19.165,60.852,-61.157
0.565,0.959,0.006,-12.573,61.951,-63.843
0.613,0.921,-0.000,-8.179,57.556,-75.073
0.618,0.865,0.012,-5.188,50.232,-91.309
0.580,0.813,0.038,-3.052,41.321,-107.727
0.508,0.797,0.069,-0.671,33.875,-117.676
0.419,0.803,0.052,6.165,32.104,-117.065
0.371,0.793,-0.043,19.897,37.537,-108.398
0.399,0.777,-0.160,31.921,45.288,-96.130
0.474,0.775,-0.244,35.034,48.523,-83.679
0.543,0.776,-0.289,29.358,47.119,-73.914
0.589,0.788,-0.274,17.761,42.542,-67.322
0.639,0.811,-0.199,4.272,36.987,-62.317
0.668,0.810,-0.137,-4.578,34.790,-56.396
0.711,0.800,-0.094,-8.423,34.973,-50.903
0.737,0.766,-0.073,-8.179,36.499,-47.180
0.746,0.732,-0.081,-5.249,39.063,-46.997
0.714,0.716,-0.106,0.244,43.213,-48.340
0.637,0.721,-0.138,5.554,46.692,-49.500
0.585,0.737,-0.192,12.451,48.767,-48.462
0.555,0.748,-0.231,18.677,48.340,-46.570
0.523,0.785,-0.261,17.822,45.044,-38.330
0.517,0.806,-0.292,13.489,43.335,-28.625
0.538,0.815,-0.320,4.822,45.105,-20.996
0.577,0.808,-0.329,-5.615,47.791,-16.052
0.623,0.786,-0.312,-14.648,49.744,-13.977
0.646,0.768,-0.288,-19.897,49.500,-18.005
0.657,0.750,-0.260,-20.447,44.739,-28.442
0.649,0.731,-0.244,-17.334,37.231,-41.992
0.627,0.715,-0.239,-13.428,30.945,-55.115
0.594,0.701,-0.240,-10.132,27.649,-64.636
0.573,0.681,-0.239,-7.568,26.306,-68.787
0.555,0.655,-0.261,-6.836,26.001,-67.871
0.570,0.651,-0.253,-9.583,24.902,-58.777
0.580,0.645,-0.226,-13.184,22.217,-46.204
0.612,0.644,-0.204,-17.700,23.499,-34.851
0.652,0.656,-0.189,-21.423,29.114,-25.818
0.671,0.666,-0.182,-23.560,35.339,-18.005
0.675,0.665,-0.192,-23.193,40.161,-13.550
0.680,0.664,-0.211,-21.790,42.542,-12.390
0.696,0.667,-0.223,-20.691,41.992,-12.451
0.702,0.662,-0.232,-20.386,39.246,-11.963
0.700,0.647,-0.243,-19.775,37.476,-11.597
0.693,0.641,-0.252,-20.020,37.842,-11.353
0.695,0.648,-0.248,-20.691,38.574,-10.315
0.088,-0.160,-2.649,172.241,-13.184,29.297
-0.048,-0.208,-2.991,199.707,-13.550,23.682
-0.234,-0.195,-3.241,209.045,-28.870,9.888
-0.588,-0.140,-3.331,203.552,-66.223,-14.099
-1.099,-0.045,-3.360,191.345,-116.699,-45.837
-1.578,-0.006,-3.335,181.458,-172.668,-75.745
-2.152,0.062,-3.210,159.119,-237.732,-83.984
-2.649,0.176,-2.810,109.558,-322.632,-55.786
-2.963,0.415,-2.092,37.292,-422.119,14.099
-3.172,0.547,-0.770,-63.232,-509.766,110.107
-3.336,0.907,1.303,-171.143,-565.796,212.769
-3.645,1.285,3.725,-208.984,-568.176,317.322
-3.590,1.656,4.000,-118.774,-503.479,421.875
-3.422,2.628,4.000,12.756,-427.185,515.503
-2.819,3.930,4.000,87.280,-386.902,598.694
-1.807,4.000,4.000,101.868,-355.408,657.288
-0.626,4.000,3.962,105.347,-313.721,682.983
0.160,4.000,3.514,86.792,-290.649,670.166
1.063,4.000,2.716,53.589,-289.246,632.935
2.424,4.000,1.557,71.533,-300.293,532.471
3.736,3.848,1.083,19.409,-326.050,352.539
4.000,2.133,1.224,-59.509,-334.656,181.030
3.719,0.769,1.745,-125.732,-274.475,52.002
2.917,-0.276,1.993,-144.470,-150.696,-34.607
1.695,-0.701,1.849,-125.122,-20.813,-97.595
0.345,-0.682,1.348,-80.994,73.730,-142.456
-0.822,-0.412,0.515,-17.761,104.370,-169.373
-1.642,-0.025,-0.357,31.555,93.384,-174.683
-1.920,0.318,-1.025,45.593,67.566,-146.545
-1.782,0.474,-1.304,27.283,38.696,-91.125
-1.308,0.517,-1.085,-7.874,8.911,-39.124
-0.794,0.518,-0.591,-36.316,-15.686,-10.559
-0.336,0.450,-0.200,-40.222,-23.987,-10.620
-0.051,0.465,0.052,-28.076,-20.813,-29.724
-0.013,0.517,0.199,-14.038,-16.663,-55.847
-0.096,0.519,0.185,0.610,-11.108,-83.008
-0.151,0.517,0.139,11.536,-7.874,-97.412
-0.199,0.452,0.096,16.541,-2.991,-96.252
-0.231,0.334,0.053,18.860,-0.427,-87.341
-0.229,0.269,0.028,18.066,-6.348,-71.228
-0.170,0.360,0.102,10.986,-14.343,-44.006
-0.039,0.480,0.194,3.357,-14.221,-10.010
0.157,0.616,0.226,2.380,-6.714,20.386
0.304,0.780,0.192,9.583,3.174,35.583
0.365,0.917,0.136,23.560,8.728,26.184
0.358,1.053,0.044,40.222,7.080,0.610
0.285,1.164,-0.055,50.476,2.258,-26.550
0.194,1.173,-0.145,52.551,1.343,-48.279
0.117,1.170,-0.176,47.424,4.700,-56.702
0.052,1.153,-0.182,33.875,13.000,-51.697
0.085,1.131,-0.133,16.663,28.076,-43.579
0.130,1.124,-0.048,5.371,37.598,-31.677
0.182,1.099,0.027,-3.784,47.058,-19.897
0.260,1.100,0.083,-11.719,56.885,-15.198
0.294,1.104,0.115,-16.052,60.791,-17.212
0.277,1.108,0.104,-15.564,58.472,-27.161
0.214,1.113,0.053,-12.207,55.725,-39.795
0.146,1.133,-0.000,-11.902,55.115,-51.147
0.081,1.153,-0.035,-14.893,53.772,-59.937
0.047,1.149,-0.035,-19.775,48.950,-64.819
0.036,1.108,-0.014,-22.766,44.495,-67.261
0.035,1.098,0.006,-24.414,42.603,-66.467
0.056,1.076,0.021,-25.574,42.542,-62.439
0.109,1.062,0.027,-26.062,44.067,-55.603
0.165,1.073,0.041,-26.489,46.326,-47.729
0.222,1.080,0.059,-25.757,49.927,-42.114
0.259,1.095,0.051,-22.766,53.772,-41.443
0.279,1.097,0.017,-18.005,56.458,-46.387
0.278,1.094,-0.026,-12.085,57.617,-55.542
0.264,1.105,-0.059,-8.240,56.580,-65.369
0.234,1.116,-0.088,-7.385,54.993,-73.181
0.200,1.131,-0.105,-9.949,52.551,-76.904
0.176,1.125,-0.104,-15.991,46.997,-78.003
0.179,1.091,-0.096,-22.400,43.091,-76.355
0.196,1.047,-0.064,-30.396,42.419,-73.059
0.215,0.990,-0.029,-37.903,44.250,-70.068
0.242,0.913,-0.013,-42.603,46.631,-67.993
0.273,0.854,-0.010,-42.603,47.241,-66.895
0.302,0.816,-0.008,-40.527,45.471,-66.895
0.315,0.806,0.001,-38.513,43.030,-66.833
0.317,0.821,0.011,-36.255,41.870,-66.589
0.320,0.856,0.004,-32.898,42.969,-65.308
0.332,0.858,-0.035,-26.978,44.922,-64.087
0.357,0.832,-0.110,-18.616,46.326,-64.331
0.366,0.812,-0.177,-12.817,45.227,-65.613
0.364,0.814,-0.216,-11.658,42.175,-66.101
0.369,0.808,-0.234,-14.832,39.673,-63.293
0.364,0.800,-0.230,-18.860,39.673,-56.030
0.352,0.820,-0.212,-22.888,42.236,-46.387
0.346,0.840,-0.197,-25.208,46.265,-36.560
0.354,0.823,-0.220,-23.254,49.500,-30.334
0.377,0.800,-0.254,-19.104,47.729,-28.809
0.401,0.793,-0.295,-14.221,41.565,-30.457
0.420,0.801,-0.334,-10.071,34.851,-33.447
0.428,0.830,-0.355,-8.911,29.358,-36.377
0.444,0.857,-0.368,-10.071,28.076,-37.109
0.434,0.872,-0.367,-15.015,30.334,-34.912
0.429,0.878,-0.352,-21.667,35.095,-31.067
0.442,0.880,-0.349,-24.902,40.222,-26.672
0.457,0.881,-0.347,-27.039,44.922,-23.071
0.492,0.895,-0.381,-27.405,47.913,-21.667
0.510,0.901,-0.397,-28.992,49.683,-24.109
0.508,0.895,-0.428,-29.724,48.889,-28.259
0.490,0.890,-0.447,-33.508,48.706,-32.471
0.461,0.870,-0.450,-39.185,47.913,-34.973
0.442,0.846,-0.435,-46.875,44.678,-34.729
0.435,0.820,-0.412,-53.345,40.161,-32.532
0.441,0.792,-0.391,-57.556,36.804,-30.945
0.468,0.755,-0.375,-58.289,33.997,-31.921
0.500,0.716,-0.365,-56.274,31.860,-35.034
0.513,0.687,-0.363,-51.392,28.870,-39.673
0.521,0.672,-0.364,-45.227,25.879,-45.044
0.524,0.667,-0.375,-39.734,24.536,-48.584
0.505,0.649,-0.401,-34.607,27.405,-50.537
0.484,0.630,-0.420,-31.189,32.227,-50.171
0.477,0.608,-0.433,-29.419,35.767,-47.424
0.472,0.592,-0.444,-28.381,35.950,-43.335
0.469,0.590,-0.449,-28.015,35.522,-38.330
0.482,0.583,-0.451,-27.344,36.804,-32.593
-0.354,-0.830,-1.883,27.832,23.621,68.848
-0.542,-1.007,-2.113,45.837,25.452,48.584
-0.821,-1.185,-2.337,60.974,18.494,25.085
-1.101,-1.391,-2.547,82.947,1.831,4.822
-1.368,-1.500,-2.702,111.633,-29.358,-6.958
-1.650,-1.489,-2.698,138.123,-74.280,-3.723
-1.910,-1.375,-2.516,155.396,-123.840,25.024
-2.096,-1.202,-2.211,157.654,-170.044,80.811
-2.240,-0.980,-1.827,156.006,-205.627,154.297
-2.385,-0.721,-1.365,156.250,-229.492,234.192
-2.446,-0.409,-0.855,158.386,-246.582,309.326
-2.365,0.006,-0.334,162.048,-257.141,376.770
-2.550,0.474,0.191,163.879,-249.512,433.228
-2.240,1.015,1.047,144.165,-243.530,464.478
-2.205,1.659,2.203,111.450,-255.859,465.454
-2.448,2.350,3.513,113.892,-274.109,425.354
-2.416,3.126,4.000,153.259,-291.870,373.840
-2.005,3.866,4.000,226.990,-305.359,391.418
-1.329,4.000,4.000,313.049,-279.419,486.450
-0.449,4.000,3.595,362.610,-187.561,598.938
-0.215,4.000,3.083,311.035,-83.313,688.232
0.783,4.000,2.011,250.488,-15.198,688.049
1.643,4.000,0.087,305.786,-12.268,564.026
2.357,4.000,-1.060,264.709,-92.590,324.707
2.253,3.154,-1.140,134.216,-184.814,60.669
1.426,1.650,-0.455,2.563,-213.196,-146.973
0.269,0.438,0.439,-83.130,-187.683,-252.502
-0.696,-0.481,0.797,-81.543,-132.446,-241.638
-1.008,-0.912,0.594,-29.236,-64.636,-147.766
-0.987,-0.761,0.391,7.812,-16.479,-26.611
-0.809,-0.277,0.286,18.921,14.404,70.190
-0.555,0.324,0.144,33.386,28.870,113.403
-0.352,0.818,-0.118,55.603,21.179,106.079
-0.189,1.050,-0.421,73.181,1.465,62.195
-0.069,1.152,-0.534,71.045,-27.527,7.629
-0.008,1.130,-0.477,45.654,-51.697,-28.137
0.025,1.063,-0.237,6.409,-56.030,-36.682
-0.004,0.922,-0.095,-23.499,-36.255,-28.992
-0.044,0.769,-0.043,-35.339,-12.207,-27.405
-0.055,0.691,0.044,-31.250,-5.920,-35.828
-0.065,0.644,0.047,-16.479,-11.292,-46.875
-0.035,0.612,0.003,-1.648,-14.648,-57.007
-0.009,0.641,0.011,6.653,-17.090,-57.861
-0.002,0.696,0.000,8.972,-15.442,-47.607
-0.055,0.682,-0.082,10.071,-6.409,-36.316
-0.104,0.689,-0.156,10.620,0.427,-29.907
-0.160,0.744,-0.177,10.071,-0.916,-26.428
-0.149,0.797,-0.184,10.254,-6.775,-23.315
-0.079,0.817,-0.138,8.240,-11.963,-20.996
-0.037,0.838,-0.114,6.958,-11.475,-20.386
-0.039,0.835,-0.107,7.507,-7.568,-24.170
-0.035,0.883,-0.096,9.827,-6.592,-31.067
-0.080,0.891,-0.105,11.963,-7.385,-36.438
-0.148,0.856,-0.130,14.099,-7.446,-42.847
-0.219,0.822,-0.144,15.625,-10.620,-50.720
-0.234,0.831,-0.141,17.700,-15.320,-52.734
-0.203,0.876,-0.139,17.517,-15.503,-44.861
-0.142,0.932,-0.132,14.526,-11.230,-30.945
-0.048,0.994,-0.120,11.047,-4.456,-16.541
0.068,1.063,-0.110,8.606,2.014,-6.653
0.159,1.129,-0.105,6.958,6.470,-4.211
0.125,1.154,-0.139,6.348,9.399,-10.376
0.039,1.146,-0.201,9.583,11.169,-26.428
-0.059,1.168,-0.259,11.108,9.644,-41.260
-0.144,1.166,-0.315,11.108,5.066,-46.936
-0.150,1.137,-0.347,8.423,-0.916,-45.410
-0.118,1.107,-0.336,1.160,-4.639,-39.490
-0.093,1.088,-0.296,-9.766,-4.272,-31.372
-0.045,1.068,-0.243,-19.043,-2.808,-23.987
0.042,1.073,-0.182,-27.100,-1.404,-18.066
0.140,1.106,-0.115,-32.166,0.366,-13.550
0.187,1.125,-0.082,-32.410,2.869,-12.146
0.148,1.076,-0.107,-25.757,6.409,-21.423
0.094,1.040,-0.131,-16.968,6.836,-39.490
0.010,1.010,-0.140,-9.521,4.456,-55.298
-0.030,0.928,-0.153,-0.244,2.380,-65.430
-0.006,0.872,-0.183,4.456,1.831,-67.993
0.025,0.851,-0.160,0.671,3.906,-61.401
0.063,0.875,-0.096,-5.554,8.423,-50.537
0.111,0.933,-0.029,-11.414,14.221,-38.330
0.162,0.992,-0.012,-12.451,20.447,-25.940
0.215,1.068,-0.036,-11.414,27.344,-15.686
0.177,1.095,-0.102,-8.972,36.865,-11.414
0.102,0.993,-0.214,-2.563,45.593,-19.836
0.050,0.906,-0.289,2.563,43.762,-37.170
0.014,0.872,-0.293,2.136,29.968,-51.819
-0.025,0.887,-0.242,-1.709,13.733,-58.899
-0.027,0.913,-0.192,-5.432,4.700,-56.580
0.017,0.928,-0.164,-8.118,5.493,-45.166
0.085,0.969,-0.135,-12.207,11.658,-29.236
0.136,1.029,-0.094,-17.700,19.226,-14.221
0.200,1.074,-0.076,-20.447,25.940,-5.188
0.251,1.081,-0.103,-20.691,31.006,-3.784
0.264,1.051,-0.158,-19.897,33.630,-10.437
0.229,1.001,-0.219,-18.921,33.875,-24.353
0.175,0.955,-0.256,-18.616,31.006,-39.551
0.102,0.936,-0.250,-20.203,24.658,-52.673
0.061,0.934,-0.220,-21.301,17.883,-59.448
0.015,0.920,-0.219,-23.193,16.602,-56.091
0.043,0.947,-0.195,-24.353,19.043,-46.936
0.055,0.965,-0.164,-25.757,22.583,-29.541
0.088,0.964,-0.177,-27.161,28.687,-14.526
0.144,0.972,-0.187,-27.710,35.889,-4.272
0.185,0.977,-0.180,-27.161,38.757,2.502
0.208,0.975,-0.188,-26.062,40.222,3.845
0.226,0.987,-0.196,-24.170,41.443,-0.366
0.217,1.001,-0.198,-21.790,40.833,-6.653
0.197,1.020,-0.205,-20.203,38.330,-14.221
0.193,1.020,-0.230,-18.677,36.194,-21.973
0.182,1.015,-0.259,-17.639,34.729,-28.870
0.167,1.002,-0.283,-19.714,35.217,-34.546
0.147,0.961,-0.316,-22.095,36.255,-38.635
0.128,0.915,-0.325,-24.048,36.133,-41.687
0.114,0.900,-0.305,-28.198,35.400,-43.518
0.098,0.890,-0.278,-32.104,34.058,-44.495
0.081,0.868,-0.263,-31.738,31.494,-44.250
0.085,0.862,-0.264,-29.663,31.677,-41.931
0.096,0.869,-0.282,-27.161,33.203,-38.879
0.104,0.866,-0.305,-24.292,35.156,-37.109
-0.398,-0.260,-2.201,212.952,-42.847,137.329
-0.618,-0.261,-2.251,222.473,-48.157,126.526
-0.817,-0.216,-2.282,239.746,-56.030,111.572
-1.000,-0.104,-2.261,249.390,-80.688,101.868
-1.168,0.021,-2.153,245.789,-126.465,104.370
-1.253,0.166,-1.972,228.699,-182.861,119.751
-1.331,0.334,-1.767,196.472,-233.704,146.057
-1.428,0.461,-1.534,162.781,-263.489,174.988
-1.633,0.694,-1.128,111.633,-273.926,203.308
-1.738,0.925,-0.665,35.950,-270.935,230.103
-1.668,1.325,0.185,-79.163,-266.296,260.681
-1.696,1.600,1.225,-170.166,-237.488,290.161
-2.050,1.564,2.464,-211.914,-210.388,280.457
-3.043,1.572,3.702,-198.792,-246.033,218.079
-3.318,1.646,4.000,-86.975,-319.275,139.648
-2.630,2.112,3.923,92.651,-371.460,133.606
-1.782,2.550,3.280,216.187,-376.099,205.994
-1.497,3.306,2.965,217.957,-332.092,285.034
-0.817,3.977,2.649,146.118,-252.014,359.863
0.167,3.882,1.927,87.646,-135.315,392.395
1.214,3.116,1.113,102.844,-58.411,339.294
1.971,2.315,0.614,119.934,-91.064,249.695
2.354,1.603,0.504,124.023,-197.327,126.648
2.178,1.129,0.511,102.600,-258.667,9.766
1.716,0.865,0.618,41.931,-219.788,-61.768
1.024,0.697,0.717,-28.625,-104.431,-77.576
0.359,0.534,0.723,-73.975,15.076,-67.627
-0.150,0.401,0.562,-66.223,83.130,-57.800
-0.418,0.356,0.246,-20.874,93.445,-57.129
-0.617,0.358,-0.140,35.706,76.782,-60.791
-0.744,0.471,-0.449,76.172,52.490,-61.157
-0.798,0.656,-0.646,84.595,34.241,-55.054
-0.814,0.749,-0.740,70.740,23.560,-46.814
-0.782,0.787,-0.738,47.485,12.085,-38.757
-0.647,0.781,-0.670,23.437,-1.343,-32.654
-0.484,0.770,-0.537,2.319,-15.625,-29.541
-0.324,0.756,-0.388,-12.329,-26.611,-29.114
-0.185,0.761,-0.279,-21.606,-32.288,-30.457
-0.143,0.763,-0.184,-24.780,-32.959,-34.241
-0.150,0.744,-0.121,-21.057,-29.114,-41.870
-0.151,0.732,-0.079,-17.029,-26.062,-52.246
-0.160,0.734,-0.041,-13.733,-26.672,-59.082
-0.151,0.747,-0.042,-8.545,-27.771,-58.350
-0.155,0.747,-0.094,-2.625,-26.306,-49.316
-0.120,0.763,-0.136,0.305,-22.705,-34.729
-0.046,0.811,-0.145,-3.967,-19.104,-16.663
-0.008,0.854,-0.133,-9.888,-14.526,0.061
-0.034,0.929,-0.119,-11.719,-9.766,10.071
0.016,0.992,-0.073,-8.911,-7.690,11.902
-0.047,1.003,-0.129,-7.812,2.197,7.019
-0.003,0.996,-0.208,1.221,6.836,-8.850
-0.028,1.007,-0.234,11.353,-0.061,-16.052
-0.036,1.020,-0.219,19.104,-12.390,-19.287
-0.026,1.035,-0.232,18.616,-14.832,-18.494
0.017,1.058,-0.213,15.015,-10.742,-12.512
0.059,1.079,-0.168,9.949,-8.667,-3.479
0.124,1.100,-0.137,4.089,-6.958,4.333
0.208,1.127,-0.108,-1.526,-5.066,9.033
0.261,1.164,-0.080,-7.019,-2.319,9.338
0.251,1.180,-0.065,-11.169,2.319,2.625
0.206,1.184,-0.062,-10.681,8.423,-9.705
0.162,1.178,-0.094,-7.446,14.343,-26.062
0.121,1.149,-0.135,-3.479,17.090,-41.565
0.083,1.128,-0.157,0.183,18.188,-53.284
0.077,1.157,-0.147,-0.671,20.569,-59.814
0.055,1.195,-0.140,-4.211,25.085,-62.561
0.042,1.175,-0.156,-4.883,30.273,-66.101
0.054,1.147,-0.179,-4.517,34.424,-70.984
0.054,1.128,-0.195,-6.958,36.133,-75.317
0.028,1.082,-0.207,-10.742,36.316,-80.994
-0.001,1.018,-0.209,-13.550,34.302,-88.135
-0.033,0.990,-0.194,-15.259,31.372,-91.797
-0.036,0.965,-0.167,-16.235,26.917,-91.858
-0.014,0.924,-0.153,-13.794,21.118,-88.928
0.006,0.898,-0.138,-10.254,17.578,-84.473
0.020,0.891,-0.140,-7.629,17.578,-79.468
0.026,0.875,-0.150,-6.287,20.203,-74.829
0.042,0.855,-0.154,-5.615,21.484,-71.167
0.065,0.844,-0.159,-5.493,20.447,-68.970
0.091,0.854,-0.156,-4.456,17.944,-67.261
0.103,0.878,-0.153,-3.296,16.785,-65.063
0.112,0.891,-0.152,-1.953,17.517,-63.354
0.144,0.892,-0.175,0.610,19.104,-61.646
0.165,0.872,-0.221,3.418,20.874,-59.326
0.177,0.848,-0.260,4.333,22.156,-57.556
0.184,0.834,-0.275,2.502,22.034,-55.908
0.182,0.822,-0.271,-0.061,21.912,-52.429
0.181,0.826,-0.249,-4.150,21.484,-48.279
0.171,0.843,-0.224,-8.362,22.095,-43.335
0.173,0.849,-0.211,-10.315,23.682,-37.720
0.197,0.846,-0.208,-10.925,25.940,-31.616
0.223,0.853,-0.205,-11.169,27.649,-25.452
0.249,0.860,-0.208,-9.460,27.893,-20.874
0.279,0.868,-0.224,-5.188,27.344,-18.250
0.302,0.869,-0.252,-1.587,25.208,-17.090
0.317,0.858,-0.279,2.075,22.888,-18.433
0.318,0.865,-0.293,3.418,21.423,-21.179
0.309,0.883,-0.286,2.197,20.020,-23.193
0.297,0.907,-0.276,-0.061,18.372,-24.231
0.304,0.924,-0.260,-2.380,16.785,-23.682
0.315,0.926,-0.247,-4.517,17.090,-21.423
0.331,0.925,-0.245,-7.080,18.982,-18.738
0.343,0.928,-0.240,-10.071,21.606,-15.442
0.355,0.931,-0.229,-14.404,25.085,-11.719
0.373,0.923,-0.219,-17.822,29.480,-9.033
0.380,0.909,-0.215,-18.555,32.898,-9.277
0.380,0.901,-0.213,-17.456,33.264,-12.512
0.372,0.897,-0.217,-15.137,32.288,-17.456
0.356,0.902,-0.215,-13.184,30.090,-23.682
0.334,0.923,-0.193,-14.282,26.917,-29.297
0.323,0.946,-0.157,-18.616,24.597,-33.081
0.316,0.945,-0.130,-21.484,24.902,-35.156
0.319,0.938,-0.134,-21.545,28.137,-36.743
0.309,0.911,-0.171,-19.287,32.776,-37.842
0.303,0.873,-0.224,-15.381,36.743,-37.964
0.298,0.846,-0.266,-13.062,38.574,-37.842
0.292,0.850,-0.281,-12.756,37.659,-37.476
0.298,0.864,-0.285,-14.465,35.950,-37.048
0.306,0.860,-0.290,-15.381,35.645,-35.767
-0.199,-0.754,-2.051,78.674,60.303,45.837
-0.397,-0.828,-2.179,91.492,63.721,36.987
-0.591,-0.909,-2.283,107.666,56.763,32.288
-0.752,-0.959,-2.377,128.967,40.771,36.255
-0.943,-0.953,-2.427,146.790,19.348,49.255
-1.143,-0.870,-2.402,160.217,-3.235,71.350
-1.341,-0.770,-2.350,172.485,-21.606,91.858
-1.485,-0.655,-2.240,183.533,-44.067,108.337
-1.574,-0.506,-2.056,189.880,-77.271,129.578
-1.637,-0.325,-1.789,188.965,-120.361,159.546
-1.660,-0.166,-1.417,184.509,-164.062,193.176
-1.684,0.009,-0.945,177.917,-205.078,224.609
-1.745,0.237,-0.430,177.979,-240.295,248.596
-1.839,0.503,0.137,195.679,-266.174,263.306
-1.698,0.815,0.716,227.722,-285.034,263.123
-1.464,1.248,1.404,259.216,-297.485,237.610
-1.124,1.802,1.773,302.246,-280.029,194.153
-1.172,2.165,1.747,310.974,-242.249,133.545
-1.340,2.351,1.913,268.677,-240.051,53.711
-1.467,2.426,2.478,193.054,-294.800,-23.743
-1.606,2.508,3.144,85.999,-406.738,-49.561
-1.621,2.472,3.546,6.409,-504.761,3.540
-1.198,2.682,3.827,-36.072,-512.268,132.019
0.182,3.364,4.000,-74.036,-437.683,300.049
1.273,3.244,3.581,-68.359,-323.853,427.124
2.671,2.006,2.630,29.846,-207.092,392.395
3.674,0.852,1.703,111.023,-162.659,263.123
3.866,0.449,1.139,109.375,-195.190,122.253
3.213,0.613,0.972,64.819,-198.364,19.409
2.228,0.798,0.871,5.676,-105.713,-28.687
1.181,0.731,0.621,-21.851,36.926,-45.471
0.278,0.620,0.251,-16.602,137.085,-45.471
-0.333,0.588,-0.115,-2.991,159.912,-36.743
-0.752,0.592,-0.401,9.338,132.263,-33.142
-1.014,0.624,-0.578,12.512,92.102,-39.673
-1.031,0.694,-0.636,7.141,55.298,-46.021
-0.861,0.746,-0.567,-8.423,23.743,-35.217
-0.581,0.750,-0.424,-31.311,-3.113,-18.127
-0.288,0.741,-0.252,-56.152,-13.550,-3.662
-0.064,0.762,-0.073,-72.327,-14.526,9.460
0.035,0.784,0.050,-74.890,-11.353,13.184
0.115,0.820,0.104,-65.552,-10.620,0.244
0.159,0.880,0.117,-49.988,-13.672,-22.034
0.149,0.910,0.103,-31.982,-19.653,-47.119
0.137,0.908,0.027,-13.977,-26.001,-67.566
0.124,0.875,-0.079,-1.953,-31.311,-76.538
0.096,0.858,-0.138,0.671,-30.151,-73.792
0.058,0.857,-0.150,-4.089,-23.010,-64.087
0.034,0.836,-0.177,-11.963,-12.146,-50.110
0.059,0.821,-0.187,-20.813,-6.592,-33.752
0.118,0.837,-0.177,-29.297,-6.836,-19.104
0.151,0.862,-0.133,-34.485,-11.169,-7.690
0.151,0.865,-0.133,-39.612,-6.104,-4.272
0.231,0.887,-0.125,-35.461,-2.991,-6.165
0.262,0.909,-0.089,-26.245,-8.972,-6.287
0.282,0.931,-0.072,-15.503,-17.944,-8.423
0.289,0.940,-0.080,-6.592,-18.127,-12.390
0.290,0.949,-0.090,1.892,-15.930,-15.564
0.290,0.956,-0.100,9.277,-15.503,-16.785
0.293,0.953,-0.125,14.343,-15.076,-18.860
0.300,0.963,-0.149,16.541,-13.306,-19.226
0.310,0.995,-0.156,14.832,-10.498,-15.625
0.309,1.011,-0.164,11.536,-7.080,-10.803
0.310,1.018,-0.173,8.179,-3.723,-8.179
0.314,1.030,-0.178,5.188,-0.427,-6.531
0.309,1.047,-0.178,1.526,3.418,-4.822
0.297,1.048,-0.186,-0.793,8.484,-4.150
0.295,1.049,-0.179,-3.235,12.024,-5.005
0.302,1.062,-0.151,-7.080,11.475,-6.836
0.317,1.059,-0.119,-8.972,8.972,-9.521
0.349,1.029,-0.109,-8.911,7.080,-12.085
0.391,0.987,-0.110,-7.019,7.080,-14.954
0.431,0.965,-0.106,-6.714,8.972,-18.005
0.448,0.956,-0.092,-7.202,11.902,-21.118
0.439,0.952,-0.078,-7.080,14.404,-24.170
0.426,0.952,-0.077,-6.287,17.334,-27.100
0.408,0.952,-0.076,-6.409,20.203,-29.724
0.386,0.944,-0.078,-7.141,22.583,-32.654
0.365,0.916,-0.100,-6.775,24.780,-36.133
0.354,0.882,-0.129,-4.761,26.855,-40.527
0.340,0.865,-0.145,-2.869,27.954,-45.410
0.319,0.867,-0.153,-1.892,28.503,-50.232
0.321,0.861,-0.161,-0.549,28.259,-53.955
0.320,0.854,-0.159,-0.305,27.588,-56.274
0.315,0.850,-0.156,-1.282,27.466,-56.641
0.310,0.839,-0.153,-1.770,28.320,-55.054
0.302,0.830,-0.145,-3.418,28.992,-52.063
0.304,0.808,-0.146,-5.005,29.297,-48.340
0.311,0.785,-0.154,-3.296,29.968,-44.250
0.315,0.789,-0.167,-0.366,31.677,-40.527
0.329,0.796,-0.187,3.967,32.593,-38.269
0.326,0.811,-0.212,7.507,32.043,-37.903
0.321,0.834,-0.219,9.338,29.663,-39.063
0.318,0.850,-0.219,10.132,26.428,-40.283
0.308,0.869,-0.212,9.949,23.682,-40.833
0.302,0.894,-0.197,7.935,21.973,-39.673
0.333,0.899,-0.188,4.578,22.888,-35.583
0.368,0.877,-0.184,1.709,24.841,-30.518
0.401,0.856,-0.180,-0.061,26.672,-26.367
0.438,0.849,-0.179,-0.916,28.870,-24.170
0.455,0.843,-0.181,0.122,30.518,-23.804
0.463,0.844,-0.183,0.977,30.823,-24.963
0.458,0.853,-0.177,1.526,29.785,-27.283
0.449,0.872,-0.162,0.000,28.992,-28.687
0.442,0.887,-0.138,-2.747,29.297,-28.137
0.442,0.898,-0.116,-5.554,30.884,-26.611
0.443,0.899,-0.112,-8.179,33.997,-25.024
0.457,0.882,-0.134,-7.874,37.476,-23.804
0.465,0.862,-0.171,-5.371,39.856,-23.499
0.460,0.861,-0.190,-4.517,40.222,-24.475
0.457,0.862,-0.194,-4.272,39.490,-26.062
0.457,0.868,-0.188,-4.578,38.147,-27.039
0.452,0.880,-0.179,-6.226,37.781,-26.428
0.446,0.891,-0.176,-8.789,39.856,-24.597
0.459,0.908,-0.167,-13.428,42.969,-22.034
0.469,0.925,-0.158,-19.043,46.448,-20.020
0.483,0.921,-0.163,-21.729,49.072,-20.874
0.499,0.897,-0.195,-21.057,50.964,-24.292
0.507,0.870,-0.231,-18.921,50.598,-30.518
-0.082,-0.462,-2.303,87.341,-60.364,130.554
-0.082,-0.507,-2.541,97.900,-72.754,130.005
-0.146,-0.544,-2.768,111.816,-84.534,119.873
-0.234,-0.583,-2.953,130.432,-97.961,99.426
-0.318,-0.563,-3.088,154.663,-119.080,76.721
-0.404,-0.496,-3.187,176.697,-147.827,59.326
-0.421,-0.410,-3.198,192.810,-182.312,50.537
-0.453,-0.333,-3.078,186.218,-218.567,57.617
-0.547,-0.321,-2.803,155.457,-250.977,78.369
-0.661,-0.233,-2.319,110.474,-275.757,110.352
-0.812,-0.079,-1.760,61.646,-287.720,153.503
-1.175,0.166,-1.120,26.367,-279.846,196.655
-1.335,0.329,-0.485,6.287,-259.583,221.802
-1.543,0.559,0.227,-7.935,-238.953,231.689
-1.537,0.813,1.118,-0.610,-218.994,229.553
-1.448,1.062,2.443,-1.709,-210.571,199.463
-1.607,1.630,3.842,30.945,-231.140,114.197
-1.391,2.206,4.000,146.118,-273.743,-15.991
-1.309,2.279,4.000,298.035,-304.504,-143.799
-0.874,2.243,4.000,401.978,-327.393,-212.708
-0.820,2.181,3.633,426.819,-334.656,-178.589
-0.654,2.622,3.033,337.402,-328.552,-60.669
0.325,2.564,2.598,195.618,-311.035,95.337
1.342,2.149,2.236,95.398,-277.039,222.595
2.138,1.942,2.060,29.358,-240.051,275.024
2.767,2.064,1.842,-5.005,-204.163,273.010
3.021,2.026,1.367,-8.179,-153.198,246.399
2.839,1.774,0.871,-4.028,-88.806,189.270
2.136,1.529,0.504,-6.470,-31.189,103.394
1.310,1.327,0.253,-6.836,12.451,9.827
0.531,1.101,0.031,-2.441,27.405,-56.763
-0.027,0.845,-0.203,-2.441,18.738,-88.501
-0.311,0.594,-0.318,-16.113,6.470,-84.290
-0.367,0.373,-0.200,-45.837,0.549,-55.786
-0.255,0.237,0.083,-77.637,-2.502,-20.447
-0.062,0.160,0.363,-92.407,-6.958,11.230
0.084,0.166,0.518,-86.975,-9.460,30.762
0.199,0.268,0.538,-65.186,-5.798,36.804
0.304,0.448,0.451,-37.109,-2.502,33.447
0.379,0.646,0.322,-14.282,-1.404,24.902
0.364,0.801,0.200,-2.441,2.991,15.686
0.353,0.920,0.103,0.610,9.644,3.723
0.309,0.946,0.026,-2.014,14.832,-6.226
0.241,0.905,-0.007,-8.423,15.991,-14.404
0.205,0.839,0.019,-18.005,11.536,-20.630
0.167,0.733,0.053,-24.719,6.531,-23.499
0.168,0.618,0.104,-26.917,3.723,-24.841
0.189,0.539,0.201,-28.442,-0.793,-22.766
0.213,0.500,0.286,-25.635,-3.845,-16.907
0.184,0.497,0.318,-17.334,-2.441,-9.399
0.191,0.530,0.271,-6.226,0.854,-3.906
0.229,0.586,0.213,-1.343,2.136,3.235
0.255,0.644,0.188,-1.953,2.747,11.902
0.273,0.690,0.185,-5.432,4.517,18.616
0.282,0.726,0.192,-8.057,7.019,20.813
0.244,0.775,0.190,-6.775,8.240,19.104
0.215,0.818,0.158,-3.723,7.751,13.977
0.224,0.865,0.137,-1.831,5.005,11.414
0.268,0.887,0.177,-3.662,1.953,12.817
0.294,0.889,0.230,-4.456,1.404,14.404
0.314,0.887,0.243,0.244,4.028,11.475
0.328,0.896,0.199,7.935,5.432,6.104
0.312,0.916,0.145,13.428,4.333,0.671
0.284,0.952,0.112,14.038,3.784,-3.784
0.282,0.996,0.096,11.658,3.540,-5.310
0.285,1.014,0.085,8.606,4.150,-4.700
0.281,1.020,0.067,5.432,5.676,-4.578
0.279,1.020,0.050,1.709,5.066,-6.165
0.248,1.007,0.045,-2.686,2.930,-9.338
0.236,0.982,0.071,-7.996,-0.427,-12.512
0.243,0.954,0.109,-13.489,-4.578,-12.085
0.263,0.911,0.143,-15.808,-7.446,-9.216
0.282,0.875,0.178,-15.015,-7.996,-6.104
0.322,0.863,0.225,-12.268,-7.141,-3.784
0.353,0.855,0.231,-6.165,-4.089,-1.831
0.355,0.866,0.199,0.916,0.183,-2.502
0.339,0.888,0.160,5.066,2.502,-4.944
0.300,0.898,0.116,6.287,1.282,-7.812
0.293,0.902,0.087,4.272,-2.502,-8.850
0.304,0.885,0.090,-0.671,-6.287,-5.859
0.341,0.875,0.128,-8.301,-9.155,-0.610
0.400,0.854,0.195,-15.015,-9.705,6.897
0.463,0.832,0.269,-18.433,-9.033,12.817
0.478,0.817,0.311,-16.418,-7.874,14.038
0.475,0.815,0.291,-9.766,-6.226,12.268
0.459,0.818,0.235,-2.563,-4.150,12.024
0.435,0.844,0.183,1.465,-1.099,13.794
0.429,0.881,0.168,1.953,2.441,16.357
0.431,0.923,0.162,1.831,5.371,18.127
0.403,0.947,0.146,3.174,7.935,15.747
0.371,0.953,0.107,5.798,9.766,7.446
0.352,0.970,0.075,7.385,7.751,-1.953
0.337,0.981,0.066,6.409,4.211,-7.751
0.321,0.974,0.078,3.540,2.625,-11.841
0.319,0.964,0.106,1.038,2.563,-13.306
0.331,0.950,0.133,0.061,4.333,-12.085
0.329,0.932,0.152,0.305,6.958,-10.437
0.308,0.917,0.159,2.014,9.766,-10.681
0.284,0.910,0.149,4.761,11.230,-12.512
0.273,0.909,0.129,7.019,10.254,-14.038
0.267,0.916,0.108,7.874,9.094,-13.306
0.265,0.929,0.100,6.714,8.606,-10.376
0.287,0.940,0.095,4.517,9.827,-6.836
0.320,0.949,0.094,2.625,11.414,-3.723
0.345,0.960,0.096,0.916,13.062,-0.610
0.337,0.951,0.088,-1.099,15.625,-0.671
0.342,0.959,0.094,-2.136,17.334,-4.700
0.354,0.962,0.106,-2.991,16.541,-9.888
0.368,0.956,0.113,-3.845,14.587,-14.893
0.376,0.935,0.128,-4.578,12.878,-19.653
0.372,0.901,0.142,-4.456,12.573,-24.048
0.373,0.878,0.153,-2.808,12.451,-26.794
0.351,0.863,0.154,-0.488,13.000,-27.710
0.313,0.850,0.143,1.587,15.076,-29.053
0.287,0.845,0.116,3.967,15.198,-30.823
0.279,0.851,0.093,5.615,12.268,-30.884
0.282,0.859,0.079,5.554,9.521,-30.640
0.293,0.865,0.080,4.272,7.812,-30.701
0.303,0.860,0.087,2.502,7.080,-29.968
0.396,-0.282,-2.156,21.545,-46.692,73.975
0.398,-0.259,-2.261,34.363,-57.556,85.144
0.410,-0.203,-2.314,44.067,-65.918,99.426
0.444,-0.100,-2.362,53.467,-68.909,114.868
0.510,0.036,-2.411,62.439,-68.970,130.615
0.498,0.158,-2.474,65.125,-63.171,143.250
0.434,0.246,-2.526,63.782,-55.786,140.991
0.357,0.303,-2.512,65.430,-63.293,123.657
0.210,0.369,-2.440,68.420,-91.187,97.534
-0.024,0.458,-2.257,65.613,-129.883,63.782
-0.291,0.605,-1.978,54.443,-168.884,29.663
-0.642,0.756,-1.620,35.278,-199.036,4.517
-1.121,0.779,-1.142,5.371,-219.666,-13.611
-1.590,0.680,-0.460,-25.330,-241.394,-36.133
-1.991,0.466,0.451,-41.504,-270.630,-42.480
-2.283,0.385,1.449,-40.588,-298.950,-15.442
-2.227,0.711,2.381,-12.390,-323.486,39.001
-1.860,1.579,3.207,27.954,-350.220,104.614
-1.084,2.375,3.604,56.885,-360.168,152.466
-0.254,2.516,3.589,53.589,-333.984,181.213
0.497,2.265,3.466,36.072,-306.702,186.523
0.941,2.276,3.580,1.770,-288.879,182.312
1.229,2.360,3.630,-42.786,-261.780,179.260
1.676,2.026,3.189,-24.475,-241.577,180.115
2.262,1.397,2.213,-7.019,-210.083,150.513
2.593,0.695,1.618,-21.545,-168.762,94.238
2.609,-0.044,1.320,-36.987,-146.301,35.278
2.367,-0.472,1.094,-39.185,-110.901,-17.212
1.843,-0.479,0.947,-34.058,-60.242,-35.461
1.228,-0.273,0.685,-18.127,-10.498,-20.569
0.714,0.018,0.344,4.517,25.085,10.010
0.403,0.305,0.070,21.118,40.955,39.856
0.270,0.591,-0.078,26.550,39.551,57.434
0.255,0.820,-0.148,25.818,29.175,59.570
0.333,0.962,-0.187,26.428,14.893,48.279
0.391,1.030,-0.221,25.635,1.831,30.212
0.430,1.026,-0.219,20.203,-4.272,6.653
0.484,0.941,-0.139,9.949,-9.033,-16.479
0.466,0.811,-0.015,-2.930,-12.268,-32.532
0.339,0.671,0.088,-11.353,-12.268,-46.753
0.250,0.530,0.116,-10.254,-13.245,-56.885
0.184,0.437,0.105,-7.019,-15.808,-54.932
0.180,0.418,0.118,-7.019,-16.174,-41.016
0.240,0.451,0.138,-8.972,-12.878,-19.958
0.350,0.483,0.115,-8.789,-9.399,-0.732
0.491,0.528,0.091,-10.376,-6.592,14.343
0.576,0.595,0.115,-14.587,-4.395,24.963
0.684,0.654,0.154,-15.076,-2.686,26.306
0.769,0.691,0.193,-12.573,-1.465,20.630
0.806,0.686,0.206,-6.958,-0.366,7.629
0.813,0.644,0.170,2.441,-0.183,-10.193
0.791,0.629,0.154,9.460,-1.526,-25.391
0.731,0.627,0.160,11.353,-1.160,-32.104
0.672,0.620,0.142,12.207,1.526,-33.020
0.631,0.637,0.116,12.390,3.601,-28.259
0.615,0.663,0.121,9.521,4.395,-18.677
0.609,0.685,0.136,5.554,4.944,-9.338
0.633,0.707,0.117,4.761,3.540,-4.028
0.640,0.724,0.075,5.066,2.075,-0.366
0.659,0.741,0.060,3.418,1.953,1.282
0.691,0.740,0.075,1.160,0.305,1.221
0.727,0.739,0.117,0.366,-0.610,1.709
0.736,0.738,0.149,0.305,1.404,2.014
0.733,0.729,0.146,1.953,3.784,0.244
0.716,0.721,0.121,4.822,3.906,-3.479
0.690,0.718,0.096,6.775,2.197,-6.470
0.668,0.712,0.076,7.141,0.793,-8.911
0.667,0.709,0.077,5.981,-0.244,-8.057
0.686,0.710,0.099,3.113,0.305,-5.005
0.716,0.723,0.127,0.732,1.343,-1.282
0.749,0.742,0.157,-0.305,3.235,1.465
0.771,0.756,0.170,-0.977,5.859,1.038
0.751,0.742,0.155,-0.122,8.484,-2.747
0.709,0.711,0.143,1.648,9.338,-9.338
0.654,0.684,0.112,5.371,8.484,-17.944
0.607,0.664,0.077,9.277,5.432,-24.780
0.592,0.649,0.058,12.146,1.343,-26.184
0.601,0.644,0.066,12.146,-0.671,-21.729
0.625,0.634,0.071,9.827,0.061,-13.855
0.671,0.631,0.094,6.287,2.136,-5.249
0.734,0.639,0.138,2.197,4.028,1.892
0.795,0.638,0.176,0.793,5.676,5.798
0.807,0.629,0.189,1.831,7.141,3.235
0.766,0.633,0.167,5.371,7.812,-4.333
0.730,0.642,0.123,10.498,6.226,-13.123
0.696,0.656,0.096,12.878,3.845,-18.982
0.667,0.675,0.094,11.475,4.211,-19.897
0.650,0.690,0.106,8.179,4.944,-17.151
0.645,0.683,0.115,5.066,5.188,-12.024
0.661,0.674,0.132,2.502,5.798,-7.202
0.694,0.666,0.147,0.671,6.470,-3.113
0.727,0.643,0.156,-0.183,8.118,1.282
0.752,0.633,0.167,0.122,9.766,3.662
0.774,0.645,0.184,1.709,12.634,4.639
0.800,0.664,0.191,3.845,15.320,5.066
0.817,0.682,0.193,6.287,17.578,4.333
0.835,0.705,0.192,8.362,19.775,2.136
0.844,0.727,0.193,10.254,22.644,-1.709
0.849,0.742,0.192,11.902,25.574,-5.554
0.855,0.750,0.185,13.855,28.137,-10.437
0.852,0.746,0.174,15.015,31.067,-15.808
0.833,0.715,0.148,16.174,34.180,-20.996
0.806,0.686,0.125,16.785,37.476,-26.062
0.777,0.678,0.127,15.259,39.917,-28.748
0.756,0.689,0.154,13.184,41.931,-28.076
0.746,0.702,0.182,11.963,44.373,-27.039
0.724,0.700,0.186,13.489,46.814,-26.794
0.710,0.707,0.168,15.747,47.668,-26.794
0.685,0.713,0.125,18.311,47.119,-26.611
0.698,0.697,0.084,19.653,44.067,-25.879
0.717,0.682,0.066,18.066,38.940,-25.024
0.727,0.671,0.073,14.099,36.438,-24.841
0.725,0.665,0.087,11.169,36.560,-26.367
0.718,0.650,0.082,9.094,38.086,-28.870
0.706,0.628,0.078,6.958,40.100,-31.006
0.694,0.607,0.085,4.395,41.199,-32.410
0.684,0.589,0.090,2.686,41.565,-31.799
0.691,0.574,0.093,2.380,41.626,-30.090
0.701,0.559,0.092,2.197,41.565,-27.710
-0.150,-0.198,-2.880,231.934,61.523,98.938
-0.261,-0.129,-3.299,275.513,43.457,58.228
-0.431,0.038,-3.569,306.763,7.996,17.700
-0.620,0.282,-3.698,314.636,-38.269,-18.311
-0.836,0.424,-3.674,306.396,-82.214,-50.903
-1.075,0.543,-3.542,276.367,-112.488,-66.040
-1.198,0.685,-3.241,230.652,-144.287,-69.824
-1.346,0.792,-2.901,189.880,-176.208,-76.477
-1.485,0.971,-2.432,123.962,-225.220,-91.614
-1.797,0.958,-1.675,48.462,-258.484,-94.299
-1.628,0.518,-0.606,-55.908,-283.508,-109.070
-1.211,-0.026,1.920,-244.385,-303.955,-119.812
-1.398,-1.083,4.000,-391.663,-329.834,-107.849
-1.704,-0.971,4.000,-289.124,-400.330,-106.445
-0.688,0.660,4.000,71.838,-481.384,-149.719
0.872,1.567,4.000,441.772,-463.989,-180.298
1.560,1.802,4.000,565.308,-417.847,-137.146
1.795,2.121,4.000,382.446,-368.713,26.428
1.589,2.341,3.604,209.106,-260.925,237.427
2.266,2.890,2.812,125.122,-67.993,367.554
3.274,2.798,1.605,140.137,62.439,375.366
3.216,1.901,0.198,207.092,80.261,274.536
2.609,1.253,-0.701,209.473,32.410,54.504
1.633,1.363,-0.589,120.178,-4.333,-168.823
0.360,1.577,-0.197,43.945,-8.057,-290.222
-0.488,1.486,-0.137,16.113,-2.625,-313.110
-0.809,1.107,-0.381,2.136,4.333,-257.935
-0.701,0.743,-0.409,-25.940,13.672,-154.785
-0.489,0.472,-0.218,-62.927,31.189,-56.030
-0.204,0.430,0.096,-102.661,36.682,3.052
-0.018,0.521,0.398,-118.164,19.226,31.067
0.177,0.599,0.562,-106.323,-2.197,36.072
0.447,0.602,0.623,-75.928,-16.785,28.809
0.681,0.599,0.610,-42.908,-25.452,23.132
0.800,0.643,0.548,-17.334,-23.437,20.874
0.802,0.677,0.415,-1.160,-11.658,11.536
0.771,0.748,0.278,3.235,-1.221,-4.700
0.703,0.769,0.151,0.671,3.967,-18.860
0.649,0.779,0.077,-6.653,4.517,-30.884
0.567,0.753,0.032,-18.738,5.920,-39.612
0.536,0.668,0.020,-30.457,9.583,-44.983
0.552,0.532,0.064,-39.307,9.766,-41.504
0.569,0.431,0.167,-46.631,9.888,-30.212
0.627,0.349,0.323,-49.927,12.634,-21.057
0.635,0.271,0.393,-44.739,15.076,-12.634
0.671,0.230,0.429,-32.104,21.423,-7.874
0.660,0.239,0.434,-18.677,25.146,-6.165
0.605,0.294,0.364,-3.479,27.954,-9.705
0.556,0.370,0.243,9.827,29.907,-17.944
0.548,0.464,0.137,19.653,28.198,-21.973
0.534,0.584,0.071,20.752,24.414,-17.578
0.509,0.670,0.052,15.503,20.508,-13.245
0.530,0.699,0.041,9.705,15.625,-11.963
0.577,0.698,0.043,4.333,10.010,-9.705
0.654,0.677,0.072,-2.197,5.432,-7.568
0.729,0.647,0.139,-7.996,5.310,-6.287
0.763,0.639,0.231,-11.841,9.827,-6.592
0.740,0.654,0.284,-12.024,17.578,-11.780
0.707,0.665,0.273,-5.615,23.499,-23.254
0.672,0.676,0.220,5.066,21.912,-34.607
0.594,0.702,0.159,12.451,16.235,-43.335
0.559,0.711,0.101,16.541,10.193,-51.086
0.569,0.706,0.057,17.090,3.845,-54.260
0.599,0.690,0.051,11.719,-0.244,-50.781
0.646,0.663,0.081,3.418,0.610,-43.213
0.709,0.624,0.122,-4.517,4.578,-35.156
0.775,0.582,0.170,-10.986,8.911,-27.527
0.829,0.552,0.236,-15.625,13.245,-21.362
0.864,0.531,0.326,-17.151,17.822,-18.616
0.900,0.519,0.396,-13.245,23.682,-19.775
0.934,0.538,0.408,-5.188,29.846,-22.644
0.941,0.553,0.349,5.737,35.583,-28.137
0.919,0.575,0.244,16.113,39.307,-37.842
0.885,0.607,0.162,19.775,39.673,-47.729
0.848,0.623,0.116,17.090,39.429,-53.711
0.811,0.605,0.109,10.925,39.978,-54.993
0.799,0.596,0.141,2.075,42.969,-49.866
0.833,0.623,0.196,-10.071,48.767,-37.537
0.849,0.630,0.252,-20.874,57.068,-22.156
0.859,0.600,0.274,-25.085,66.650,-11.902
0.866,0.555,0.267,-23.010,73.303,-12.756
0.861,0.536,0.259,-16.724,74.585,-21.912
0.856,0.529,0.229,-9.888,70.801,-33.325
0.841,0.526,0.192,-4.333,66.528,-43.884
0.822,0.543,0.188,-4.272,64.453,-48.889
0.810,0.584,0.217,-10.498,65.979,-46.326
0.821,0.596,0.231,-20.508,72.021,-38.635
0.827,0.536,0.198,-27.771,80.811,-32.593
0.817,0.469,0.131,-27.039,86.914,-34.302
0.803,0.427,0.045,-23.010,87.524,-41.138
0.773,0.425,0.013,-20.508,81.909,-48.462
0.737,0.457,0.009,-21.912,73.608,-52.551
0.741,0.487,0.010,-25.757,65.979,-49.622
0.732,0.555,0.064,-34.851,59.814,-38.025
0.715,0.623,0.114,-46.082,57.678,-19.775
0.711,0.680,0.131,-57.373,59.082,-2.441
0.737,0.677,0.128,-61.890,65.308,10.803
0.798,0.593,0.009,-49.622,71.838,13.367
0.853,0.507,-0.079,-40.527,66.772,8.240
0.846,0.493,-0.125,-39.612,59.631,2.319
0.822,0.491,-0.168,-37.109,55.603,-3.723
0.807,0.488,-0.200,-33.997,52.246,-8.972
0.785,0.482,-0.215,-34.241,48.218,-12.146
0.750,0.485,-0.203,-39.551,45.715,-12.207
0.721,0.495,-0.173,-48.767,44.678,-10.559
0.708,0.499,-0.139,-56.641,45.044,-7.141
0.701,0.471,-0.140,-58.777,46.448,-5.005
0.737,0.433,-0.175,-55.603,48.218,-4.211
0.779,0.404,-0.229,-49.316,49.377,-3.845
0.826,0.386,-0.289,-43.091,48.523,-4.944
0.858,0.385,-0.342,-38.208,45.471,-8.057
0.883,0.389,-0.384,-35.461,42.297,-13.672
0.889,0.389,-0.405,-37.598,38.513,-20.386
0.872,0.377,-0.407,-43.945,35.278,-26.245
0.845,0.355,-0.393,-52.612,34.485,-29.724
0.827,0.331,-0.367,-61.401,34.790,-31.677
0.810,0.289,-0.349,-66.345,35.828,-31.067
0.807,0.241,-0.361,-63.538,37.415,-28.687
0.838,0.198,-0.394,-56.274,38.818,-27.893
0.407,0.103,-2.223,90.393,-5.188,94.849
0.355,0.087,-2.384,84.900,-8.057,118.042
0.354,0.060,-2.633,94.971,-5.981,136.963
0.279,-0.046,-3.085,129.700,-7.141,142.456
0.104,-0.240,-3.633,166.504,-26.672,133.606
-0.061,-0.455,-4.000,182.068,-64.514,122.253
-0.245,-0.727,-4.000,168.091,-109.924,114.502
-0.361,-0.925,-4.000,132.080,-149.597,113.342
-0.421,-0.927,-3.758,79.590,-178.650,133.301
-0.432,-0.847,-3.144,38.696,-183.960,178.650
-0.472,-0.775,-2.700,28.625,-167.053,226.257
-0.631,-0.723,-2.470,31.982,-134.705,259.460
-0.939,-0.627,-2.193,27.405,-103.516,270.874
-1.289,-0.509,-1.699,21.545,-95.154,261.414
-1.563,-0.313,-0.822,14.404,-110.107,238.647
-2.176,-0.174,0.599,22.705,-121.826,199.097
-2.783,-0.067,2.242,75.439,-134.033,118.958
-3.783,0.668,3.199,199.219,-191.711,27.466
-4.000,1.665,3.268,331.421,-302.673,-18.005
-3.795,2.550,3.948,300.537,-416.321,64.697
-2.599,3.105,4.000,122.070,-437.134,278.870
-1.620,3.302,4.000,36.560,-322.388,450.623
-0.189,4.000,4.000,31.250,-235.596,496.521
1.208,4.000,4.000,74.707,-257.690,478.333
2.491,3.850,3.393,170.105,-262.329,381.958
3.330,2.933,2.043,153.809,-247.620,253.357
3.755,1.895,1.483,83.679,-216.431,162.231
3.549,0.990,1.184,24.292,-133.728,104.126
2.790,0.384,0.882,-20.386,-18.555,46.204
1.523,0.125,0.573,-45.410,81.543,-4.578
0.089,0.298,0.376,-59.265,137.268,-42.419
-0.913,0.489,0.155,-53.528,140.076,-63.538
-1.409,0.476,-0.165,-32.593,115.112,-73.364
-1.537,0.457,-0.398,-18.188,82.092,-77.454
-1.431,0.423,-0.423,-11.108,44.556,-73.914
-1.161,0.394,-0.287,-6.592,10.315,-59.875
-0.835,0.427,-0.112,-0.183,-10.254,-34.241
-0.627,0.497,0.003,4.761,-12.268,-6.470
-0.477,0.632,0.022,12.512,-6.409,9.766
-0.352,0.832,-0.014,21.057,-7.629,16.907
-0.233,0.980,-0.083,27.771,-13.916,15.320
-0.110,1.031,-0.114,28.015,-22.522,8.667
0.015,1.026,-0.079,21.790,-27.893,3.174
0.121,1.038,-0.009,12.268,-27.954,-0.488
0.207,1.008,0.029,2.625,-21.851,-1.160
0.244,0.928,0.034,-5.005,-13.245,-3.906
0.239,0.871,0.030,-10.986,-6.775,-11.780
0.185,0.865,0.061,-11.902,-5.249,-20.447
0.144,0.840,0.070,-6.165,-8.362,-27.832
0.101,0.832,0.039,-1.404,-4.761,-36.133
0.064,0.868,0.027,1.099,-0.061,-36.194
0.052,0.919,0.014,3.845,0.488,-30.945
0.053,0.966,-0.013,8.362,1.465,-24.475
0.070,1.023,-0.033,11.047,4.272,-18.372
0.072,1.068,-0.059,12.939,5.066,-13.977
0.060,1.089,-0.110,15.320,3.174,-15.930
0.046,1.090,-0.148,16.235,-0.671,-25.818
0.038,1.061,-0.146,15.259,-7.751,-37.415
0.019,1.029,-0.136,12.756,-13.733,-44.617
0.005,0.990,-0.115,8.118,-14.587,-45.898
-0.005,0.939,-0.100,3.235,-12.329,-41.077
0.008,0.912,-0.078,-1.892,-9.033,-31.311
0.049,0.906,-0.034,-6.775,-6.531,-18.188
0.109,0.915,0.015,-9.644,-4.272,-5.188
0.177,0.943,0.027,-8.423,-1.099,5.005
0.250,0.994,0.025,-5.066,1.831,10.010
0.247,1.042,-0.020,-0.183,4.395,6.531
0.214,1.079,-0.114,5.066,6.470,-5.981
0.190,1.123,-0.175,7.080,2.808,-21.423
0.147,1.145,-0.180,3.418,-4.333,-32.959
0.132,1.118,-0.155,-1.404,-9.766,-38.025
0.155,1.065,-0.128,-6.348,-11.108,-36.377
0.193,1.014,-0.080,-12.329,-9.766,-29.053
0.244,0.976,-0.018,-16.785,-6.348,-19.714
0.295,0.960,0.030,-18.433,-1.465,-11.963
0.356,0.964,0.054,-17.883,3.113,-6.653
0.400,0.974,0.062,-15.991,7.629,-5.310
0.427,0.990,0.058,-15.076,12.329,-7.446
0.446,1.009,0.046,-14.893,17.090,-13.245
0.446,1.029,0.028,-15.198,19.592,-21.667
0.432,1.034,-0.001,-15.808,21.667,-29.663
0.407,1.034,-0.032,-17.761,24.963,-36.133
0.377,1.044,-0.044,-22.705,29.236,-40.771
0.357,1.075,-0.032,-29.907,32.959,-43.335
0.334,1.096,-0.015,-36.560,35.461,-45.166
0.323,1.079,-0.003,-41.382,37.598,-48.279
0.322,1.047,0.010,-44.739,40.222,-52.856
0.326,1.006,0.042,-47.607,43.213,-56.885
0.315,0.966,0.049,-48.401,47.241,-60.730
0.301,0.942,0.044,-46.753,50.232,-64.026
0.286,0.945,0.034,-45.654,51.514,-64.697
0.272,0.954,0.023,-46.387,52.734,-62.744
0.265,0.951,0.007,-47.363,54.626,-59.814
0.275,0.946,-0.004,-48.828,55.603,-56.641
0.288,0.933,-0.016,-51.147,55.176,-54.871
0.308,0.901,-0.023,-52.368,53.467,-55.481
0.320,0.861,-0.027,-52.673,50.781,-60.120
0.324,0.817,-0.038,-51.025,47.668,-67.566
0.333,0.771,-0.059,-47.058,44.495,-74.951
0.318,0.733,-0.072,-42.847,43.152,-79.834
0.300,0.713,-0.068,-38.818,43.274,-82.581
0.293,0.709,-0.064,-35.400,46.021,-80.872
0.281,0.712,-0.074,-32.043,50.293,-75.012
0.273,0.715,-0.099,-29.114,54.138,-66.833
0.274,0.705,-0.132,-26.794,57.190,-57.983
0.289,0.694,-0.166,-24.048,57.739,-50.232
0.333,0.706,-0.194,-21.973,55.664,-44.983
0.382,0.714,-0.227,-20.142,53.345,-42.175
0.409,0.706,-0.262,-17.700,52.063,-42.786
0.414,0.714,-0.290,-14.954,51.514,-45.532
0.402,0.733,-0.315,-12.634,50.781,-48.401
0.378,0.749,-0.339,-11.292,49.377,-50.354
0.354,0.770,-0.355,-11.536,46.936,-52.185
0.340,0.791,-0.364,-12.878,45.105,-51.880
0.335,0.795,-0.378,-14.221,43.640,-50.354
0.350,0.786,-0.393,-15.259,42.114,-49.561
0.370,0.772,-0.412,-15.625,39.124,-49.866
0.415,0.763,-0.422,-16.357,33.569,-51.208
0.432,0.762,-0.437,-18.860,28.442,-52.551
0.230,0.143,-2.366,107.117,-48.950,122.925
0.137,0.071,-2.782,124.023,-64.880,145.325
-0.010,-0.026,-3.304,169.006,-74.219,154.968
-0.350,-0.027,-3.912,210.083,-84.412,151.733
-0.441,-0.079,-4.000,246.338,-110.352,140.625
-0.230,-0.020,-4.000,271.790,-174.561,130.310
0.034,0.217,-4.000,230.469,-254.211,174.622
0.147,0.208,-4.000,166.687,-265.930,277.710
0.173,0.250,-4.000,38.147,-188.843,363.770
0.053,0.309,-4.000,-123.535,-78.735,398.010
-0.274,0.484,-4.000,-260.254,-48.340,390.808
-0.625,0.396,-2.704,-335.937,-110.352,331.238
-1.269,-0.003,-0.826,-377.563,-196.411,203.064
-3.558,-0.854,3.188,-377.502,-335.999,36.377
-4.000,-0.376,4.000,-157.471,-490.784,-73.486
-3.825,1.657,4.000,244.019,-456.848,13.916
-2.682,3.565,4.000,501.099,-304.810,161.255
-2.130,4.000,3.998,476.990,-155.457,263.245
-2.570,4.000,4.000,313.049,-77.271,349.487
-1.269,4.000,3.813,161.499,-110.779,397.156
0.725,4.000,2.958,132.019,-153.259,377.869
1.926,4.000,2.265,133.118,-171.265,244.080
2.488,3.506,1.698,157.593,-200.745,48.035
2.083,1.822,1.554,158.020,-191.895,-133.667
0.957,0.632,1.201,137.329,-131.348,-251.404
-0.057,0.058,0.553,112.976,-66.833,-270.142
-0.666,-0.314,-0.143,79.773,-22.766,-211.792
-0.957,-0.434,-0.407,21.912,4.150,-135.803
-0.896,-0.336,-0.362,-34.851,8.545,-68.176
-0.760,-0.177,-0.125,-68.115,4.883,-24.536
-0.567,0.110,0.273,-67.993,-6.775,-15.503
-0.188,0.261,0.426,-31.494,-14.587,-18.066
0.159,0.305,0.304,8.301,-1.892,-29.053
0.237,0.384,0.193,29.724,13.184,-47.729
0.174,0.407,0.093,33.081,20.203,-61.340
0.059,0.401,-0.009,23.132,28.748,-58.777
-0.151,0.335,-0.158,11.169,41.931,-52.917
-0.330,0.364,-0.365,3.906,49.438,-50.354
-0.283,0.402,-0.529,-6.653,47.607,-34.546
-0.171,0.398,-0.479,-30.945,38.940,-11.902
-0.043,0.329,-0.245,-55.542,22.278,5.310
0.130,0.238,0.104,-64.575,-0.122,18.677
0.257,0.258,0.470,-50.781,-14.343,27.466
0.367,0.250,0.553,-15.625,-10.498,31.860
0.405,0.319,0.303,22.766,2.747,33.020
0.443,0.507,0.066,46.570,14.343,33.508
0.425,0.703,-0.095,51.697,20.142,29.663
0.361,0.821,-0.234,47.607,25.391,20.935
0.299,0.844,-0.369,39.795,26.428,9.460
0.246,0.847,-0.466,27.954,22.095,1.404
0.216,0.841,-0.472,9.521,15.747,-1.282
0.251,0.802,-0.367,-12.695,8.301,-0.427
0.270,0.802,-0.141,-29.846,-3.418,3.540
0.252,0.801,0.096,-32.654,-9.399,5.737
0.250,0.802,0.235,-18.616,-4.395,4.517
0.305,0.816,0.174,3.784,5.371,3.540
0.330,0.871,-0.002,21.667,12.817,6.165
0.309,0.935,-0.128,27.527,17.761,8.240
0.286,0.995,-0.196,25.391,17.456,9.399
0.282,1.038,-0.219,20.386,15.686,10.986
0.294,1.078,-0.211,13.611,14.587,12.024
0.291,1.102,-0.214,7.385,13.794,11.658
0.266,1.096,-0.222,2.441,13.184,6.348
0.260,1.091,-0.200,-1.099,8.423,-1.648
0.256,1.079,-0.167,-3.601,1.770,-7.812
0.210,1.043,-0.113,-4.150,-2.808,-13.794
0.195,1.006,-0.053,-2.686,-3.906,-18.616
0.219,0.984,-0.022,1.099,-2.075,-18.433
0.255,0.985,-0.000,3.601,1.160,-15.076
0.312,0.992,-0.006,5.005,6.104,-11.169
0.375,0.997,-0.019,5.859,11.353,-8.118
0.436,1.016,-0.021,4.639,16.724,-7.812
0.454,1.034,-0.018,1.648,22.217,-9.766
0.463,1.052,-0.014,-2.380,25.879,-12.756
0.439,1.028,-0.018,-0.854,33.386,-16.846
0.420,1.035,-0.038,-4.211,38.574,-21.973
0.411,1.029,-0.046,-9.460,39.429,-25.696
0.397,1.011,-0.041,-12.817,40.955,-28.748
0.399,1.003,-0.017,-19.043,42.786,-31.555
0.398,1.007,0.010,-23.010,45.532,-34.668
0.377,1.010,0.036,-26.611,49.316,-38.818
0.361,0.985,0.045,-29.175,52.917,-42.603
0.349,0.943,0.041,-31.372,56.519,-45.044
0.328,0.899,0.037,-31.372,59.387,-46.082
0.305,0.865,0.036,-28.809,59.814,-45.410
0.278,0.866,0.053,-26.184,59.448,-44.861
0.264,0.885,0.081,-22.522,57.922,-45.044
0.263,0.901,0.082,-16.846,54.932,-46.021
0.284,0.900,0.053,-11.597,52.307,-48.462
0.320,0.895,0.005,-7.141,50.781,-52.856
0.340,0.864,-0.063,-4.395,51.208,-58.167
0.329,0.841,-0.130,-3.662,53.101,-63.965
0.305,0.836,-0.163,-5.188,52.246,-68.359
0.292,0.854,-0.163,-8.789,47.058,-68.787
0.292,0.852,-0.160,-10.437,40.344,-65.979
0.291,0.853,-0.148,-13.672,35.583,-61.279
0.299,0.851,-0.136,-16.357,34.729,-55.298
0.325,0.857,-0.138,-18.066,36.804,-49.255
0.362,0.847,-0.161,-18.555,39.856,-44.678
0.403,0.832,-0.182,-18.311,41.138,-42.847
0.452,0.836,-0.188,-17.639,39.368,-43.640
0.488,0.861,-0.193,-17.212,37.048,-45.776
0.507,0.900,-0.196,-16.541,36.865,-47.607
0.510,0.913,-0.213,-15.381,38.452,-49.683
0.493,0.907,-0.236,-15.625,40.161,-52.246
0.479,0.893,-0.244,-17.761,39.368,-53.833
0.479,0.875,-0.243,-20.325,37.231,-54.016
0.488,0.863,-0.241,-23.193,33.997,-53.406
0.503,0.848,-0.244,-24.780,31.189,-50.842
0.512,0.835,-0.241,-26.062,30.640,-47.791
0.528,0.826,-0.245,-27.100,32.959,-44.861
0.538,0.815,-0.264,-27.893,36.255,-41.870
0.533,0.803,-0.279,-30.273,40.588,-39.246
0.531,0.803,-0.268,-34.607,43.762,-38.086
0.541,0.803,-0.254,-38.086,43.701,-37.598
0.562,0.776,-0.259,-39.001,41.870,-36.743
0.571,0.754,-0.268,-37.354,40.649,-37.231
0.571,0.759,-0.282,-35.095,39.490,-38.940
0.583,0.751,-0.311,-32.532,38.757,-40.710
0.510,-0.058,-2.667,151.611,108.337,273.193
0.449,-0.041,-3.071,167.603,109.741,269.165
0.351,-0.042,-3.355,170.105,89.722,255.615
0.166,-0.083,-3.506,171.021,81.116,236.938
0.020,-0.220,-3.752,176.086,90.576,234.436
-0.108,-0.395,-4.000,187.439,106.567,255.920
-0.328,-0.469,-4.000,182.800,123.779,274.658
-0.556,-0.499,-4.000,163.635,120.422,279.907
-0.777,-0.461,-4.000,145.142,83.618,277.039
-1.034,-0.414,-4.000,119.385,25.513,268.250
-1.235,-0.418,-3.898,81.238,-37.170,253.235
-1.475,-0.371,-3.239,31.555,-107.605,236.816
-2.114,-0.318,-2.055,-28.748,-164.001,220.154
-2.896,-0.402,0.120,-72.327,-170.654,193.726
-3.723,-0.258,2.974,-52.979,-129.517,157.654
-3.999,0.142,4.000,59.631,-82.458,105.835
-4.000,1.484,4.000,239.136,-93.872,50.842
-4.000,3.089,4.000,390.442,-223.877,-13.245
-4.000,4.000,4.000,430.542,-323.364,-7.263
-3.205,4.000,4.000,350.647,-350.769,101.013
-0.905,4.000,4.000,125.000,-390.686,264.038
2.687,4.000,4.000,28.137,-333.252,342.163
4.000,2.807,4.000,44.800,-250.183,238.037
4.000,0.896,4.000,39.551,-211.182,43.640
4.000,-0.128,3.914,31.189,-62.744,-149.597
2.148,-0.324,2.915,38.086,136.658,-268.921
-0.887,-0.179,1.711,65.063,249.573,-295.959
-2.875,0.266,0.185,96.802,273.743,-270.264
-3.422,0.628,-1.505,104.858,258.240,-199.768
-2.914,0.830,-2.339,53.650,224.304,-118.286
-2.140,0.769,-2.221,-6.470,154.907,-70.251
-1.443,0.641,-1.532,-42.236,62.500,-57.617
-0.968,0.427,-0.631,-58.228,-0.183,-52.124
-0.646,0.146,0.286,-51.758,-16.357,-44.434
-0.465,0.002,0.634,-25.269,-7.935,-38.147
-0.321,0.052,0.301,20.142,1.343,-39.001
-0.162,0.283,-0.047,45.837,-6.653,-35.645
-0.102,0.520,-0.097,34.485,-17.883,-17.944
0.027,0.667,-0.098,12.390,-15.259,1.892
0.155,0.798,-0.096,-4.944,-8.789,14.648
0.265,0.930,-0.083,-18.066,-9.277,17.212
0.291,0.978,-0.064,-27.649,-11.353,10.864
0.326,0.973,0.015,-30.518,-11.536,-5.127
0.212,0.923,0.061,-26.733,-7.812,-17.273
0.112,0.817,0.157,-13.855,-1.831,-35.034
-0.037,0.771,0.140,0.061,4.517,-45.105
-0.133,0.752,0.051,13.000,11.292,-46.570
-0.218,0.767,-0.096,22.949,17.212,-40.710
-0.267,0.819,-0.182,25.391,16.235,-29.968
-0.264,0.883,-0.215,21.973,10.315,-17.578
-0.170,0.934,-0.240,17.517,4.272,-6.836
-0.102,0.962,-0.232,12.329,-3.662,-0.122
-0.030,1.011,-0.189,6.104,-12.085,4.822
0.057,1.091,-0.119,-0.488,-11.963,9.155
0.126,1.160,-0.041,-5.615,-8.362,11.047
0.169,1.171,0.005,-6.165,-3.784,5.554
0.175,1.143,-0.007,0.000,0.122,-9.155
0.098,1.138,-0.041,7.874,0.000,-28.748
0.006,1.117,-0.079,15.869,-4.822,-46.204
-0.067,1.088,-0.135,21.912,-8.423,-55.054
-0.092,1.086,-0.167,20.630,-8.545,-52.551
-0.061,1.087,-0.166,13.855,-6.226,-42.908
-0.004,1.096,-0.133,5.676,-4.211,-30.457
0.073,1.115,-0.100,-2.686,-1.770,-21.118
0.175,1.143,-0.067,-11.169,1.831,-15.625
0.240,1.160,-0.027,-17.517,3.540,-15.137
0.280,1.186,0.021,-21.484,5.005,-19.409
0.298,1.193,0.035,-22.278,8.606,-26.367
0.290,1.171,0.019,-19.775,11.353,-36.133
0.252,1.151,-0.011,-16.541,14.099,-47.058
0.207,1.150,0.024,-14.526,16.052,-56.091
0.158,1.133,0.044,-9.033,17.517,-61.279
0.124,1.079,0.015,-3.723,19.836,-63.660
0.112,1.053,-0.003,-2.563,22.583,-62.012
0.099,1.043,-0.012,-6.042,25.024,-57.617
0.096,1.017,-0.047,-9.277,26.611,-52.185
0.112,1.001,-0.085,-13.000,28.870,-46.143
0.119,1.015,-0.097,-19.287,31.555,-39.734
0.118,1.033,-0.085,-25.330,33.691,-34.424
0.137,1.030,-0.087,-28.809,34.363,-31.982
0.166,1.024,-0.093,-31.433,33.569,-31.921
0.188,1.035,-0.091,-34.424,33.020,-35.156
0.180,1.038,-0.084,-35.889,33.325,-40.466
0.184,1.009,-0.070,-35.706,31.799,-47.363
0.180,0.963,-0.074,-34.180,31.311,-53.162
0.175,0.934,-0.056,-33.386,32.104,-57.190
0.169,0.919,-0.039,-33.203,33.142,-58.228
0.165,0.903,-0.049,-32.043,34.302,-56.519
0.183,0.898,-0.070,-32.166,36.377,-52.002
0.191,0.887,-0.090,-33.691,37.964,-46.997
0.216,0.878,-0.110,-34.851,38.086,-43.640
0.228,0.869,-0.130,-35.278,37.476,-42.358
0.224,0.860,-0.140,-36.865,36.682,-43.823
0.210,0.849,-0.138,-38.330,35.889,-46.753
0.204,0.834,-0.131,-38.635,33.508,-50.415
0.199,0.828,-0.119,-37.048,30.579,-53.650
0.212,0.827,-0.111,-34.485,28.259,-54.321
0.241,0.802,-0.125,-31.738,26.672,-53.345
0.277,0.792,-0.135,-29.724,26.367,-51.086
0.286,0.803,-0.135,-29.236,29.541,-47.241
0.283,0.813,-0.145,-29.785,35.034,-41.626
0.271,0.818,-0.157,-31.555,39.856,-34.912
0.256,0.838,-0.166,-34.851,42.664,-28.198
0.244,0.856,-0.176,-37.842,44.067,-22.583
0.244,0.872,-0.180,-40.405,43.396,-19.287
0.276,0.866,-0.197,-40.222,41.687,-18.799
0.314,0.850,-0.231,-36.377,39.001,-21.179
0.340,0.852,-0.275,-31.311,34.729,-26.611
0.349,0.869,-0.311,-27.710,30.945,-31.860
0.341,0.886,-0.340,-27.405,28.198,-36.438
0.319,0.889,-0.363,-30.762,27.344,-40.405
0.295,0.890,-0.362,-37.964,27.527,-41.992
0.265,0.894,-0.326,-45.593,28.442,-40.283
0.268,0.876,-0.298,-51.636,29.175,-37.231
0.285,0.848,-0.293,-53.589,30.334,-35.400
0.313,0.835,-0.298,-52.612,30.518,-34.607
0.338,0.833,-0.316,-49.927,29.114,-35.522
0.367,0.829,-0.345,-45.227,26.001,-38.513
0.400,0.840,-0.371,-41.016,21.790,-43.640
1.268,-0.310,-2.067,119.934,25.085,104.065
1.558,-0.380,-2.458,173.340,35.034,135.376
1.462,-0.291,-2.633,182.190,34.851,166.443
1.216,-0.154,-2.591,161.743,37.415,167.664
1.069,-0.256,-2.700,186.096,65.308,133.972
0.919,-0.489,-3.096,275.513,107.666,84.595
0.951,-0.580,-3.589,378.052,127.808,34.546
0.860,-0.514,-4.000,433.655,123.779,-5.066
0.602,-0.429,-4.000,433.228,108.215,-24.902
0.322,-0.362,-4.000,400.635,93.994,-26.550
0.050,-0.327,-4.000,337.646,81.055,-19.531
-0.251,-0.434,-4.000,260.864,62.988,-26.306
-0.825,-0.721,-4.000,198.486,41.809,-68.787
-1.431,-1.122,-3.442,132.874,14.648,-137.512
-2.320,-1.804,-1.814,64.758,-16.785,-206.543
-3.436,-2.867,1.059,13.611,-70.313,-256.348
-4.000,-2.922,3.994,46.082,-173.401,-236.328
-4.000,-1.647,4.000,221.741,-296.265,-123.535
-4.000,0.235,4.000,376.953,-447.510,-17.151
-3.755,1.686,4.000,378.723,-595.459,104.736
-2.316,2.315,4.000,277.466,-607.239,293.884
-1.106,3.978,4.000,174.194,-436.707,529.480
1.215,4.000,4.000,105.347,-236.267,752.747
3.979,4.000,3.950,203.796,-99.243,740.784
4.000,3.935,1.594,207.825,-103.821,453.918
4.000,2.661,0.834,99.731,-147.278,129.333
3.542,1.490,1.163,-12.268,-80.933,-142.334
1.349,0.608,1.600,-67.749,30.212,-304.993
-0.543,0.073,1.307,-44.189,111.755,-330.994
-1.649,-0.198,0.572,-2.197,152.466,-261.414
-1.865,-0.042,-0.062,15.991,159.363,-154.175
-1.708,0.395,-0.106,1.221,144.043,-52.551
-1.414,0.686,-0.001,-4.456,117.676,0.427
-0.970,0.817,-0.032,13.062,81.421,-1.160
-0.638,0.932,-0.026,30.579,43.640,-23.376
-0.452,1.025,0.033,36.865,22.034,-47.424
-0.353,1.023,0.047,39.124,15.381,-71.289
-0.261,0.987,0.008,34.058,9.094,-87.097
-0.205,0.921,-0.025,19.531,2.930,-89.233
-0.220,0.771,0.018,-0.916,-1.221,-82.458
-0.216,0.593,0.133,-18.738,-4.395,-68.298
-0.177,0.470,0.286,-27.954,-8.057,-46.936
-0.167,0.422,0.354,-23.560,-7.568,-29.846
-0.136,0.508,0.259,-5.005,-3.235,-24.597
-0.083,0.671,0.119,14.648,-1.709,-22.644
-0.015,0.829,0.013,24.292,-4.150,-17.090
0.090,0.928,-0.021,24.658,-6.775,-11.108
0.201,1.016,0.021,17.273,-8.911,-6.958
0.311,1.085,0.089,10.498,-7.812,-4.639
0.408,1.069,0.161,3.906,-6.042,-4.456
0.467,1.045,0.217,-2.502,-3.845,-7.812
0.453,1.038,0.281,-7.507,0.305,-16.968
0.419,0.997,0.320,-5.615,4.578,-33.569
0.370,0.963,0.311,2.380,5.554,-53.467
0.318,0.934,0.256,12.634,2.686,-70.557
0.282,0.906,0.190,18.372,-1.526,-79.529
0.263,0.878,0.150,16.724,-4.639,-79.163
0.266,0.846,0.134,9.155,-6.531,-71.228
0.293,0.818,0.153,-2.197,-6.531,-57.922
0.327,0.824,0.213,-15.076,-4.028,-41.138
0.374,0.840,0.270,-26.184,-0.732,-25.940
0.434,0.835,0.290,-28.625,2.075,-16.296
0.482,0.861,0.318,-25.269,3.113,-13.000
0.521,0.924,0.365,-20.325,5.432,-13.672
0.566,0.983,0.375,-15.137,12.146,-16.724
0.589,1.013,0.351,-10.864,18.677,-23.254
0.585,1.036,0.322,-8.240,22.034,-33.386
0.558,1.050,0.297,-8.789,23.804,-43.762
0.511,1.031,0.282,-14.465,25.696,-51.880
0.481,0.960,0.258,-23.682,26.489,-57.190
0.473,0.868,0.215,-30.090,26.978,-58.960
0.482,0.815,0.192,-34.424,27.222,-57.495
0.481,0.798,0.197,-38.208,28.076,-55.115
0.488,0.783,0.229,-38.086,28.931,-54.321
0.501,0.775,0.254,-34.119,31.433,-55.359
0.500,0.774,0.264,-29.236,34.790,-54.871
0.513,0.787,0.260,-26.733,37.842,-51.941
0.481,0.832,0.287,-31.921,40.161,-46.570
0.435,0.836,0.269,-41.687,46.570,-40.588
0.505,0.778,0.250,-48.889,49.072,-46.326
0.503,0.717,0.165,-54.871,51.270,-46.936
0.510,0.684,0.088,-59.937,52.429,-44.739
0.500,0.685,0.034,-67.322,51.819,-40.833
0.477,0.683,0.024,-70.496,48.889,-39.368
0.482,0.679,0.044,-70.740,44.250,-39.185
0.481,0.698,0.079,-74.158,41.382,-36.621
0.450,0.709,0.111,-74.951,41.016,-33.813
0.407,0.727,0.104,-72.632,40.283,-32.837
0.393,0.757,0.082,-72.998,37.598,-31.006
0.439,0.745,0.030,-74.646,34.424,-27.588
0.520,0.685,-0.054,-74.280,33.081,-24.536
0.574,0.681,-0.105,-75.989,32.410,-21.912
0.595,0.714,-0.130,-80.688,31.189,-19.897
0.589,0.736,-0.148,-81.665,30.518,-20.813
0.557,0.759,-0.166,-81.787,28.931,-22.400
0.530,0.783,-0.160,-85.510,24.658,-22.888
0.513,0.792,-0.140,-90.576,19.470,-23.682
0.487,0.789,-0.121,-92.896,15.442,-25.879
0.453,0.792,-0.096,-94.055,16.052,-28.259
0.484,0.771,-0.096,-93.018,23.010,-30.151
0.536,0.724,-0.137,-88.135,30.823,-30.457
0.569,0.685,-0.178,-83.374,35.156,-31.372
0.602,0.662,-0.211,-80.688,36.987,-34.546
0.639,0.656,-0.240,-77.148,34.363,-39.734
0.661,0.643,-0.285,-71.594,29.419,-46.509
0.651,0.645,-0.338,-67.017,26.978,-51.880
0.608,0.655,-0.376,-67.688,25.879,-54.504
0.566,0.644,-0.415,-72.083,26.550,-53.650
0.559,0.617,-0.438,-77.698,26.917,-48.706
0.586,0.586,-0.444,-80.994,25.024,-42.175
0.640,0.566,-0.438,-82.764,21.790,-37.170
0.695,0.549,-0.422,-80.811,19.043,-34.668
0.757,0.526,-0.415,-73.120,19.165,-36.926
0.798,0.502,-0.427,-62.317,21.301,-42.908
0.809,0.492,-0.463,-51.392,24.048,-50.598
0.787,0.481,-0.532,-42.725,27.832,-56.091
0.727,0.483,-0.578,-40.405,33.447,-56.641
0.675,0.497,-0.597,-42.236,38.025,-53.650
0.661,0.504,-0.613,-44.006,38.574,-46.753
0.515,0.343,-1.823,85.938,27.588,18.921
0.570,0.355,-1.973,89.233,39.001,21.912
0.672,0.335,-2.132,98.511,54.138,29.358
0.823,0.266,-2.332,102.722,69.946,41.809
0.960,0.148,-2.509,104.553,82.031,55.420
0.865,0.107,-2.543,102.112,93.933,67.017
0.613,0.187,-2.479,91.187,105.225,74.463
0.448,0.054,-2.634,91.553,112.854,58.472
0.501,-0.241,-2.945,122.192,113.098,12.268
0.425,-0.479,-3.291,154.114,96.680,-36.987
0.245,-0.550,-3.511,173.279,64.270,-81.238
-0.089,-0.554,-3.726,184.814,29.541,-130.981
-0.590,-0.527,-3.994,199.341,-0.122,-190.552
-1.087,-0.509,-4.000,216.064,-36.499,-249.634
-1.579,-0.450,-4.000,202.881,-84.351,-295.837
-2.200,-0.244,-3.636,136.230,-142.212,-320.129
-2.843,-0.144,-2.711,51.025,-194.580,-331.177
-3.644,-0.225,-1.136,-49.805,-219.788,-331.238
-4.000,-0.760,1.168,-149.719,-245.300,-311.340
-4.000,-0.904,3.906,-171.387,-347.839,-232.361
-3.917,0.093,4.000,-87.891,-522.705,-78.979
-0.975,0.490,4.000,-5.920,-642.883,64.758
1.461,-0.034,4.000,91.187,-571.289,123.291
2.246,0.912,4.000,234.985,-430.298,78.674
1.997,1.474,4.000,305.908,-336.731,67.322
1.653,2.838,4.000,368.591,-219.177,121.216
1.751,3.977,2.761,327.881,-86.487,258.057
2.288,4.000,0.769,214.722,32.288,362.793
2.604,3.951,-0.244,82.642,61.218,324.463
2.367,3.343,-0.498,-16.052,24.048,197.144
1.848,2.600,-0.217,-91.003,-4.578,54.993
1.186,1.539,0.313,-142.944,-6.104,-78.857
0.314,0.469,0.787,-150.208,0.305,-179.871
-0.372,-0.274,0.886,-105.103,1.770,-224.060
-0.594,-0.702,0.604,-40.527,13.000,-192.444
-0.597,-0.751,0.359,-10.193,30.273,-103.271
-0.514,-0.475,0.235,-11.353,41.626,10.132
-0.266,-0.028,0.091,-15.076,53.040,108.215
0.095,0.426,-0.156,-11.963,57.678,159.851
0.397,0.758,-0.311,-7.690,41.504,160.461
0.548,0.980,-0.305,-8.911,12.268,124.939
0.613,1.042,-0.188,-13.245,-12.329,77.087
0.664,0.990,-0.065,-16.724,-22.522,34.973
0.701,0.897,0.009,-21.851,-18.616,6.958
0.764,0.806,0.063,-28.625,-7.385,-8.240
0.837,0.747,0.094,-31.982,4.761,-16.846
0.850,0.726,0.122,-34.180,19.348,-24.353
0.824,0.725,0.127,-34.607,31.494,-32.837
0.795,0.700,0.081,-32.410,38.208,-41.016
0.775,0.647,0.010,-30.640,40.710,-46.570
0.767,0.597,-0.023,-31.860,43.091,-49.927
0.755,0.566,-0.043,-35.828,46.021,-50.842
0.752,0.531,-0.062,-38.879,47.607,-48.523
0.768,0.530,-0.036,-43.884,48.096,-43.701
0.718,0.525,0.029,-52.124,47.852,-38.208
0.768,0.516,0.081,-55.176,48.828,-36.804
0.785,0.453,0.102,-46.997,44.800,-34.241
0.822,0.449,0.101,-37.781,44.739,-33.752
0.813,0.470,0.114,-34.790,48.157,-28.748
0.804,0.468,0.102,-29.602,53.833,-25.269
0.806,0.458,0.046,-18.311,57.556,-25.269
0.806,0.471,0.000,-8.301,56.396,-25.513
0.794,0.503,-0.030,-4.761,53.955,-24.597
0.753,0.534,-0.074,-5.188,54.199,-21.729
0.730,0.552,-0.142,-6.836,56.946,-15.625
0.718,0.553,-0.199,-11.719,59.021,-7.324
0.710,0.554,-0.224,-19.836,60.364,0.854
0.731,0.552,-0.213,-28.198,61.584,8.362
0.751,0.565,-0.191,-37.415,62.439,15.198
0.732,0.586,-0.159,-48.035,63.416,20.508
0.690,0.614,-0.124,-57.861,65.063,22.888
0.668,0.635,-0.090,-64.392,66.040,22.339
0.668,0.637,-0.063,-65.002,65.063,18.616
0.694,0.604,-0.072,-61.462,63.904,13.977
0.719,0.557,-0.132,-54.504,65.552,10.010
0.713,0.527,-0.207,-45.837,68.726,7.141
0.700,0.513,-0.288,-34.973,71.655,3.540
0.683,0.540,-0.349,-27.588,72.571,-1.770
0.642,0.580,-0.395,-26.550,71.533,-6.531
0.592,0.590,-0.434,-29.785,70.557,-10.803
0.552,0.575,-0.457,-34.851,70.251,-14.465
0.535,0.573,-0.445,-42.480,69.031,-14.893
0.552,0.580,-0.428,-52.673,66.345,-11.230
0.561,0.558,-0.430,-60.242,66.895,-7.812
0.578,0.528,-0.411,-62.927,67.017,-7.629
0.597,0.522,-0.403,-60.486,61.829,-9.460
0.596,0.532,-0.432,-54.810,55.969,-13.123
0.583,0.536,-0.474,-48.340,52.551,-20.020
0.570,0.530,-0.517,-44.250,50.842,-26.428
0.535,0.515,-0.550,-43.579,49.194,-30.212
0.510,0.510,-0.557,-46.021,46.204,-31.555
0.516,0.503,-0.553,-52.612,43.640,-29.480
0.522,0.474,-0.547,-59.814,43.701,-24.475
0.536,0.443,-0.556,-63.782,46.204,-18.494
0.585,0.426,-0.566,-65.369,47.729,-12.756
0.620,0.412,-0.589,-63.354,47.546,-10.254
0.621,0.404,-0.612,-58.716,45.471,-12.451
0.589,0.412,-0.627,-52.856,42.542,-17.700
0.552,0.438,-0.636,-48.706,38.086,-23.010
0.506,0.446,-0.670,-44.312,34.790,-26.367
0.496,0.442,-0.721,-40.771,33.936,-27.771
0.518,0.406,-0.784,-37.903,33.081,-26.367
0.503,0.362,-0.857,-34.363,32.104,-23.376
0.503,0.353,-0.906,-33.630,28.931,-19.592
0.506,0.349,-0.932,-35.217,24.841,-16.174
0.500,0.351,-0.941,-39.978,22.400,-13.000
0.471,0.356,-0.918,-46.753,20.996,-9.949
0.449,0.365,-0.866,-51.453,18.311,-7.019
0.449,0.367,-0.830,-53.040,15.137,-5.127
0.466,0.352,-0.836,-49.683,13.184,-2.869
0.503,0.319,-0.867,-42.297,12.451,-1.648
0.539,0.300,-0.910,-33.386,10.315,-2.075
0.582,0.303,-0.961,-25.574,7.385,-4.150
0.603,0.294,-1.003,-20.325,4.700,-7.874
0.604,0.284,-1.016,-19.836,0.854,-13.794
0.596,0.277,-1.009,-23.743,-3.784,-18.433
0.576,0.260,-0.987,-30.396,-7.324,-20.264
0.554,0.245,-0.947,-38.025,-10.254,-19.470
0.542,0.233,-0.903,-44.312,-13.062,-16.174
0.870,-0.339,-1.513,35.095,-81.116,21.301
0.922,-0.452,-1.544,45.105,-85.510,23.315
0.996,-0.564,-1.614,52.612,-86.670,31.982
1.093,-0.721,-1.729,55.420,-86.609,43.884
1.261,-0.928,-1.893,61.707,-77.209,54.932
1.484,-1.135,-2.091,73.853,-58.167,67.932
1.653,-1.254,-2.270,93.567,-34.851,84.656
1.724,-1.265,-2.393,113.037,-14.343,99.182
1.689,-1.236,-2.450,116.211,-4.639,99.915
1.615,-1.224,-2.495,118.042,-3.235,87.219
1.458,-1.289,-2.638,130.493,-1.099,61.462
1.086,-1.323,-2.748,152.771,4.333,19.653
0.433,-1.231,-2.792,171.997,3.174,-33.447
-0.448,-1.071,-2.842,190.002,-2.197,-103.210
-1.615,-0.932,-2.965,200.928,-12.329,-188.171
-3.127,-0.846,-2.960,189.636,-63.049,-277.588
-4.000,-0.979,-2.185,145.508,-199.524,-333.130
-4.000,-1.015,-0.214,17.456,-417.542,-235.535
-4.000,0.235,2.535,-145.569,-572.632,147.949
-4.000,3.107,4.000,-284.302,-466.064,686.646
-4.000,4.000,4.000,-339.233,-148.376,1086.914
-1.317,4.000,4.000,-151.184,148.682,1122.253
-0.133,4.000,4.000,104.309,141.541,802.979
0.890,4.000,4.000,264.099,-35.950,440.613
1.960,4.000,1.881,366.943,-114.502,164.124
2.643,4.000,1.018,243.225,-139.954,-3.540
2.347,2.003,1.961,59.082,-137.817,-79.712
1.706,0.291,2.401,-37.842,-59.631,-131.226
0.930,-0.256,1.768,-30.090,38.208,-141.846
-0.158,-0.012,0.717,1.526,124.146,-101.929
-0.876,0.102,-0.192,17.456,170.654,-54.932
-1.049,0.306,-0.556,27.649,163.818,-26.001
-0.826,0.511,-0.451,39.795,121.460,-14.893
-0.674,0.568,-0.329,57.739,82.764,-21.667
-0.683,0.518,-0.405,78.247,60.547,-41.138
-0.616,0.530,-0.524,87.219,29.907,-56.885
-0.678,0.604,-0.547,70.862,10.864,-47.974
-0.692,0.661,-0.513,41.687,9.460,-23.926
-0.498,0.768,-0.449,14.893,4.272,8.911
-0.174,0.860,-0.312,-7.751,-1.465,39.673
0.175,0.897,-0.068,-24.780,-5.737,55.969
0.464,0.932,0.175,-31.555,-8.667,54.993
0.641,0.978,0.285,-24.048,-7.629,38.818
0.681,1.004,0.248,-7.202,-4.211,12.146
0.623,1.013,0.136,11.719,-4.272,-16.907
0.574,1.038,0.030,24.902,-12.756,-43.091
0.507,1.036,-0.076,27.954,-19.775,-55.969
0.454,1.024,-0.113,23.132,-19.958,-56.152
0.427,1.028,-0.163,18.066,-18.372,-47.668
0.444,1.056,-0.205,10.193,-16.479,-33.813
0.496,1.108,-0.190,-1.038,-12.512,-18.799
0.545,1.136,-0.196,-9.583,-7.996,-9.521
0.540,1.099,-0.253,-12.512,-4.761,-12.512
0.505,1.089,-0.222,-12.634,-5.981,-22.522
0.473,1.096,-0.153,-11.414,-8.179,-32.288
0.474,1.054,-0.137,-8.545,-7.996,-40.833
0.438,1.018,-0.148,-7.751,-7.812,-46.753
0.455,1.004,-0.114,-4.028,-7.629,-49.744
0.461,0.958,-0.155,-4.028,-7.202,-52.124
0.463,0.939,-0.172,-5.798,-5.493,-52.612
0.458,0.961,-0.164,-10.498,-6.714,-41.138
0.474,0.982,-0.142,-20.813,-3.479,-27.832
0.495,0.974,-0.142,-27.954,0.427,-18.188
0.510,0.950,-0.156,-30.762,1.709,-13.855
0.523,0.944,-0.154,-32.654,0.305,-12.756
0.521,0.967,-0.115,-36.072,0.183,-14.221
0.520,0.971,-0.090,-36.987,2.991,-16.724
0.534,0.968,-0.105,-35.461,6.226,-18.738
0.554,0.968,-0.118,-34.790,7.507,-20.569
0.548,0.931,-0.161,-32.654,8.362,-25.879
0.525,0.875,-0.213,-26.245,7.751,-35.645
0.492,0.853,-0.241,-20.325,3.296,-44.800
0.450,0.862,-0.251,-18.188,-2.075,-50.354
0.433,0.891,-0.265,-20.081,-4.456,-50.842
0.432,0.914,-0.278,-26.062,-2.380,-46.692
0.450,0.906,-0.285,-33.936,0.427,-41.260
0.479,0.871,-0.264,-42.603,2.197,-36.621
0.508,0.826,-0.214,-48.218,3.174,-33.875
0.540,0.797,-0.168,-49.072,4.333,-32.776
0.560,0.778,-0.140,-48.035,6.531,-33.569
0.568,0.762,-0.130,-46.631,9.949,-35.828
0.568,0.747,-0.137,-44.739,12.573,-39.063
0.553,0.722,-0.138,-41.138,12.207,-42.664
0.516,0.702,-0.150,-35.767,10.498,-46.204
0.500,0.691,-0.176,-30.029,11.108,-49.194
0.485,0.702,-0.204,-26.184,12.878,-49.683
0.463,0.714,-0.245,-23.804,15.198,-46.997
0.465,0.713,-0.291,-21.790,16.663,-42.969
0.473,0.713,-0.319,-22.156,15.869,-37.903
0.479,0.724,-0.316,-24.353,14.648,-33.875
0.483,0.740,-0.297,-26.184,14.404,-31.006
0.490,0.744,-0.287,-25.085,15.198,-28.564
0.511,0.732,-0.297,-22.034,15.564,-27.832
0.532,0.710,-0.318,-18.799,14.709,-30.090
0.540,0.691,-0.334,-16.113,13.184,-33.752
0.539,0.680,-0.342,-14.526,11.536,-37.537
0.522,0.675,-0.344,-13.062,10.559,-40.283
0.509,0.674,-0.350,-12.573,10.620,-41.077
0.494,0.668,-0.357,-13.611,12.085,-39.917
0.478,0.668,-0.355,-15.625,14.465,-36.499
0.478,0.660,-0.362,-17.639,16.907,-31.616
0.491,0.646,-0.367,-19.775,18.555,-26.245
0.502,0.648,-0.365,-22.644,18.311,-21.118
0.516,0.648,-0.366,-23.865,19.043,-17.395
0.549,0.642,-0.374,-23.193,20.691,-15.381
0.572,0.651,-0.369,-22.217,21.423,-15.442
0.577,0.677,-0.348,-22.034,20.325,-16.663
0.580,0.694,-0.345,-21.179,18.799,-19.104
0.590,0.692,-0.355,-19.348,17.151,-21.912
0.599,0.691,-0.373,-16.846,15.442,-25.513
0.597,0.694,-0.385,-15.625,15.198,-29.358
0.590,0.694,-0.408,-14.771,16.357,-32.654
0.580,0.691,-0.427,-13.306,16.602,-35.095
0.570,0.696,-0.430,-12.878,15.503,-36.438
0.563,0.715,-0.416,-13.611,14.343,-37.048
0.565,0.724,-0.397,-14.893,13.672,-37.354
0.573,0.728,-0.387,-15.747,14.343,-36.865
0.587,0.734,-0.376,-16.418,15.381,-36.133
0.604,0.741,-0.361,-17.883,16.541,-35.461
0.971,0.261,-1.207,86.304,62.439,101.379
0.906,0.229,-1.249,77.881,48.767,70.313
0.938,0.202,-1.266,73.547,28.259,38.391
0.964,0.176,-1.280,77.087,5.920,5.554
0.925,0.115,-1.317,83.740,-11.353,-26.367
0.891,0.046,-1.345,91.614,-24.353,-53.406
0.886,0.010,-1.355,95.642,-33.264,-69.580
0.824,-0.009,-1.411,95.886,-33.447,-70.801
0.801,-0.018,-1.470,94.971,-26.917,-56.946
0.764,0.010,-1.510,88.745,-16.235,-30.029
0.724,0.132,-1.573,79.529,-0.244,5.310
0.730,0.265,-1.693,74.768,20.142,41.199
0.791,0.398,-1.830,73.486,40.344,70.251
0.770,0.490,-2.000,72.083,56.030,89.050
0.773,0.549,-2.195,70.801,66.162,100.159
0.750,0.623,-2.410,71.472,70.923,108.215
0.618,0.548,-2.678,72.815,71.350,116.638
0.633,0.392,-3.021,79.651,72.937,121.643
0.833,0.082,-3.411,89.966,69.702,121.704
0.881,-0.379,-3.830,97.168,64.819,113.220
0.886,-0.687,-4.000,95.581,63.354,93.201
0.644,-0.778,-4.000,66.772,58.594,69.885
0.210,-0.800,-3.993,28.442,40.894,44.006
-0.243,-0.809,-3.682,-10.071,8.240,21.729
-0.892,-0.807,-3.284,-62.317,-30.090,13.184
-1.663,-0.802,-2.630,-126.892,-72.571,13.000
-2.429,-0.971,-1.573,-184.631,-112.488,24.414
-3.315,-1.165,-0.156,-215.454,-138.916,61.951
-3.994,-1.019,1.851,-167.358,-156.677,141.846
-3.873,0.347,3.989,-26.123,-198.242,260.986
-2.478,2.707,4.000,124.939,-285.889,370.300
-1.307,3.796,4.000,298.035,-326.477,398.926
0.212,3.753,4.000,362.183,-282.959,348.816
0.776,4.000,4.000,233.459,-228.943,377.563
0.685,4.000,4.000,13.184,-131.775,479.431
1.905,4.000,4.000,23.071,4.700,507.080
2.919,4.000,2.685,149.719,40.527,406.799
3.163,3.373,1.443,148.499,-13.916,193.359
2.380,2.073,0.775,110.168,-50.720,-63.354
0.981,1.048,0.392,91.309,-73.181,-270.508
-0.111,0.507,0.073,62.561,-65.796,-332.153
-0.838,0.189,-0.341,22.644,-26.978,-266.174
-1.032,-0.177,-0.635,-28.931,18.066,-143.555
-0.700,-0.296,-0.514,-94.482,47.607,-15.198
-0.255,-0.169,-0.139,-145.203,52.124,81.421
0.122,0.004,0.268,-153.381,47.058,120.605
0.341,0.201,0.435,-120.483,44.006,110.168
0.364,0.376,0.243,-67.444,46.387,80.200
0.209,0.476,-0.132,-22.278,49.011,42.969
0.014,0.558,-0.430,2.747,45.776,10.254
-0.187,0.654,-0.585,15.137,35.400,-7.874
-0.332,0.704,-0.693,23.437,25.574,-10.681
-0.388,0.726,-0.811,24.963,19.409,-2.930
-0.302,0.746,-0.807,13.611,11.475,12.268
-0.159,0.747,-0.697,-6.775,3.418,30.029
0.016,0.747,-0.588,-25.635,-1.709,43.884
0.233,0.736,-0.459,-38.025,-6.775,50.415
0.389,0.744,-0.332,-43.518,-9.399,48.950
0.443,0.790,-0.257,-41.199,-9.399,37.781
0.414,0.825,-0.253,-30.396,-8.972,20.020
0.338,0.802,-0.339,-17.090,-8.972,1.038
0.233,0.774,-0.403,-6.775,-11.108,-15.442
0.143,0.749,-0.414,0.000,-16.479,-25.269
0.082,0.716,-0.453,5.005,-18.494,-25.146
0.095,0.706,-0.465,5.005,-15.503,-15.137
0.141,0.736,-0.422,-0.671,-10.986,2.869
0.180,0.780,-0.361,-7.507,-5.981,21.362
0.259,0.815,-0.323,-8.606,-2.441,33.386
0.354,0.849,-0.309,-3.845,-2.075,36.804
0.408,0.881,-0.294,2.808,-4.517,31.799
0.430,0.913,-0.291,11.780,-7.263,21.851
0.424,0.930,-0.305,20.813,-10.498,10.803
0.417,0.943,-0.330,24.170,-13.062,3.479
0.337,0.901,-0.374,21.484,-12.085,-4.089
0.232,0.917,-0.451,16.846,-4.333,-5.737
0.194,0.888,-0.449,13.550,-8.667,-4.333
0.194,0.888,-0.424,6.775,-13.916,-2.563
0.203,0.893,-0.397,0.549,-13.428,5.920
0.226,0.899,-0.352,-6.653,-9.644,13.000
0.243,0.933,-0.304,-13.123,-3.845,19.531
0.279,0.924,-0.281,-12.207,-0.305,22.644
0.352,0.903,-0.278,-8.850,0.061,19.897
0.411,0.901,-0.266,-4.822,0.000,14.160
0.405,0.907,-0.258,-1.221,2.075,6.958
0.390,0.902,-0.277,2.319,3.357,-1.709
0.346,0.879,-0.321,7.202,0.366,-9.399
0.285,0.874,-0.363,10.193,-2.869,-15.015
0.259,0.878,-0.384,9.827,-4.517,-16.479
0.255,0.872,-0.384,7.141,-6.226,-13.916
0.270,0.864,-0.370,3.235,-6.836,-9.155
0.287,0.859,-0.352,0.061,-6.104,-5.249
0.296,0.852,-0.345,-1.648,-5.066,-2.930
0.310,0.849,-0.342,-1.587,-4.089,-2.136
0.324,0.837,-0.336,0.061,-3.479,-3.296
0.325,0.811,-0.351,4.089,-3.418,-5.188
0.319,0.809,-0.349,7.324,-3.967,-6.775
0.308,0.817,-0.336,9.583,-4.150,-6.897
0.308,0.829,-0.336,11.597,-2.441,-5.615
0.295,0.849,-0.338,11.719,-0.061,-3.906
0.298,0.895,-0.356,8.667,3.052,-1.221
0.305,0.898,-0.355,9.155,4.822,1.892
0.328,0.900,-0.369,8.362,3.967,1.709
0.328,0.904,-0.393,5.737,5.554,2.930
0.325,0.900,-0.388,3.113,5.066,1.587
0.306,0.890,-0.368,0.244,3.296,-0.427
0.285,0.877,-0.342,-1.892,1.099,-0.427
0.287,0.861,-0.317,-2.625,0.183,1.404
0.293,0.863,-0.301,-2.441,0.916,5.005
0.306,0.867,-0.291,-1.770,2.869,9.033
0.313,0.877,-0.312,-0.427,6.409,12.024
0.305,0.899,-0.338,1.099,9.827,13.306
0.292,0.924,-0.356,1.526,10.559,12.817
0.289,0.932,-0.368,2.258,8.545,10.559
0.282,0.944,-0.372,2.502,5.981,7.751
0.272,0.956,-0.375,2.014,4.517,4.883
0.262,0.951,-0.398,1.404,4.150,2.136
0.241,0.938,-0.408,-0.427,4.456,0.305
0.229,0.916,-0.400,-2.869,3.845,-0.305
0.222,0.892,-0.389,-4.272,2.991,-0.488
0.558,-0.230,-2.261,58.289,25.085,95.398
0.612,-0.451,-2.767,77.881,31.372,89.539
0.606,-0.730,-3.486,114.502,28.687,79.163
0.442,-0.921,-4.000,102.905,1.587,72.205
0.351,-1.004,-4.000,7.080,-54.138,54.932
0.323,-1.124,-3.789,-127.258,-108.337,31.921
0.240,-1.423,-3.177,-226.196,-131.104,19.775
0.279,-1.874,-2.572,-264.404,-111.328,14.587
0.362,-2.495,-2.072,-254.639,-72.388,10.193
0.131,-3.116,-1.552,-216.614,-50.476,20.752
-0.431,-3.662,-1.052,-161.621,-39.307,64.148
-1.204,-4.000,-0.562,-75.500,-21.606,150.696
-2.138,-3.839,0.024,59.692,0.122,274.109
-3.187,-2.482,1.074,224.060,5.493,397.766
-3.772,-0.267,1.846,408.813,-39.978,490.662
-3.544,2.199,2.444,574.341,-152.893,506.897
-3.211,3.956,2.940,648.865,-268.738,385.132
-3.344,4.000,3.182,605.713,-341.431,208.008
-3.393,4.000,3.479,494.446,-391.663,114.136
-2.721,4.000,3.285,358.765,-398.254,147.644
-1.580,4.000,3.309,189.575,-332.031,267.029
0.114,4.000,3.926,6.470,-246.277,387.329
2.210,3.801,3.732,-7.629,-198.608,371.399
3.667,2.623,3.583,44.617,-208.862,223.816
3.889,1.516,3.194,100.037,-192.322,58.044
2.826,0.661,2.179,127.075,-84.961,-58.289
1.121,0.303,0.923,106.873,42.603,-89.294
-0.266,0.390,-0.216,60.303,130.066,-44.983
-1.066,0.688,-0.912,9.094,165.955,15.808
-1.228,0.871,-1.110,-32.410,152.466,46.387
-1.077,0.782,-1.034,-49.805,103.394,30.518
-0.847,0.593,-0.770,-46.021,45.776,-8.728
-0.587,0.374,-0.426,-31.677,3.052,-41.260
-0.338,0.189,-0.065,-12.268,-14.893,-46.875
-0.163,0.173,0.121,12.268,-11.963,-30.334
-0.056,0.338,0.045,38.574,-2.502,-10.010
-0.031,0.599,-0.086,48.706,3.113,5.493
0.008,0.876,-0.211,42.542,8.118,19.226
0.068,1.005,-0.297,24.719,12.817,29.724
0.176,1.006,-0.237,0.183,12.146,33.081
0.296,1.003,-0.110,-19.592,6.836,28.076
0.364,1.016,-0.031,-27.771,2.869,17.700
0.338,0.993,-0.037,-27.832,0.427,4.028
0.322,0.963,-0.035,-23.621,-1.038,-10.986
0.325,0.914,0.018,-17.090,-2.258,-23.437
0.299,0.830,0.021,-5.981,0.488,-30.090
0.217,0.748,-0.020,7.263,6.104,-31.799
0.181,0.742,-0.055,17.151,8.057,-26.428
0.142,0.783,-0.127,26.367,8.545,-11.169
0.169,0.865,-0.193,27.039,9.827,0.122
0.212,0.981,-0.196,21.118,10.010,9.644
0.307,1.070,-0.207,15.442,7.141,12.817
0.375,1.095,-0.208,8.850,4.578,7.202
0.401,1.106,-0.164,1.465,1.404,-4.089
0.400,1.093,-0.130,-2.563,-1.953,-15.381
0.349,1.063,-0.133,-3.967,-2.441,-24.597
0.292,1.040,-0.152,-3.906,0.061,-29.724
0.243,1.000,-0.172,-3.662,3.479,-28.687
0.196,0.956,-0.182,-3.296,6.226,-21.729
0.218,0.935,-0.189,-1.892,8.057,-13.367
0.266,0.947,-0.186,-0.549,8.057,-6.470
0.303,0.968,-0.193,0.732,7.507,-4.333
0.314,0.992,-0.214,2.747,5.920,-6.958
0.310,1.010,-0.240,3.906,1.404,-13.733
0.290,0.997,-0.270,2.991,-2.869,-21.301
0.277,0.974,-0.284,-0.244,-5.066,-26.367
0.256,0.940,-0.272,-4.211,-6.531,-28.992
0.225,0.893,-0.257,-6.104,-8.850,-30.273
0.236,0.857,-0.216,-6.958,-10.803,-28.931
0.226,0.824,-0.147,-6.226,-11.047,-23.987
0.237,0.784,-0.121,-2.136,-8.606,-16.602
0.300,0.773,-0.141,3.479,-4.211,-7.996
0.343,0.797,-0.140,6.348,-1.465,-1.648
0.338,0.819,-0.161,8.972,-0.305,-0.122
0.341,0.851,-0.201,11.902,-1.221,-2.747
0.306,0.884,-0.219,11.108,-3.845,-6.775
0.258,0.888,-0.227,7.080,-6.165,-10.437
0.251,0.877,-0.221,1.282,-7.935,-10.925
0.252,0.840,-0.190,-5.432,-8.179,-7.568
0.244,0.791,-0.157,-10.986,-6.348,-2.502
0.250,0.761,-0.130,-12.329,-4.517,2.319
0.277,0.769,-0.117,-10.315,-4.089,5.798
0.304,0.793,-0.103,-6.775,-2.686,8.118
0.305,0.820,-0.107,-2.808,-1.282,10.498
0.304,0.865,-0.133,-2.686,1.831,13.000
0.309,0.893,-0.123,-3.174,3.113,13.184
0.293,0.897,-0.124,-2.502,0.549,8.484
0.279,0.897,-0.159,0.061,-2.441,2.625
0.270,0.907,-0.176,0.671,-4.456,-1.404
0.280,0.909,-0.180,-0.488,-5.493,-2.747
0.300,0.903,-0.164,-2.441,-4.883,-2.014
0.304,0.889,-0.152,-4.150,-4.456,-0.671
0.300,0.866,-0.141,-4.395,-4.639,-0.671
0.303,0.854,-0.106,-3.479,-5.920,0.183
0.300,0.857,-0.092,-0.793,-6.409,1.831
0.320,0.873,-0.111,2.258,-5.310,3.662
0.319,0.891,-0.137,3.601,-4.333,4.639
0.318,0.913,-0.153,4.211,-3.845,3.723
0.317,0.926,-0.172,5.005,-4.333,2.258
0.304,0.933,-0.190,5.127,-4.700,0.916
0.291,0.946,-0.197,4.089,-4.944,-0.305
0.286,0.956,-0.188,1.892,-5.127,-0.732
0.291,0.945,-0.169,-0.488,-5.249,-0.671
0.304,0.932,-0.144,-3.052,-5.066,1.038
0.336,0.918,-0.118,-5.005,-3.723,3.601
0.362,0.902,-0.096,-5.310,-1.648,4.761
0.366,0.891,-0.095,-3.967,0.854,4.150
0.355,0.883,-0.107,-1.038,1.282,2.197
0.334,0.880,-0.124,2.075,-0.305,-1.038
0.321,0.890,-0.142,3.662,-1.221,-3.113
0.317,0.907,-0.150,3.418,-1.099,-3.174
0.322,0.922,-0.156,0.916,0.732,-1.709
0.324,0.930,-0.155,-2.808,3.235,0.488
0.318,0.928,-0.161,-5.859,5.432,2.808
0.302,0.926,-0.172,-8.179,6.775,4.944
0.281,0.917,-0.172,-9.583,6.226,6.409
0.271,0.908,-0.161,-9.583,3.845,6.531
0.264,0.906,-0.144,-8.423,0.977,5.310
0.259,0.908,-0.135,-6.042,-0.488,4.578
0.349,0.063,-2.365,58.167,40.649,76.477
0.499,-0.079,-2.603,68.115,33.752,76.721
0.713,-0.217,-2.849,83.313,24.719,79.102
0.939,-0.314,-3.061,100.830,15.198,87.708
1.077,-0.338,-3.231,120.972,5.859,96.191
1.067,-0.424,-3.535,138.367,5.493,90.149
1.046,-0.581,-3.963,157.104,10.315,59.998
0.978,-0.742,-4.000,161.438,-3.723,17.700
0.923,-0.796,-4.000,133.728,-50.049,-16.602
0.700,-0.792,-4.000,77.942,-100.159,-33.813
0.283,-0.938,-3.798,15.503,-120.911,-41.260
-0.062,-1.106,-3.465,-37.476,-129.089,-43.762
-0.603,-1.351,-2.968,-78.491,-146.057,-42.297
-1.372,-1.706,-2.295,-99.121,-169.250,-45.471
-2.209,-2.089,-1.338,-90.637,-205.750,-36.926
-3.412,-2.229,0.416,-48.340,-268.677,12.451
-3.999,-1.769,2.351,33.081,-347.290,119.507
-3.865,-0.451,3.946,189.819,-405.640,262.695
-3.166,1.514,4.000,318.176,-432.983,357.422
-2.760,2.916,4.000,351.807,-400.696,380.737
-2.734,3.926,4.000,247.559,-301.086,371.643
-2.049,4.000,4.000,104.797,-226.624,379.639
-1.184,4.000,4.000,14.587,-192.383,414.917
0.554,4.000,4.000,30.396,-152.954,389.038
2.151,4.000,3.018,100.037,-131.287,231.812
2.490,2.579,2.461,105.957,-150.513,1.160
1.676,1.178,2.324,70.313,-128.174,-167.358
0.517,0.354,1.720,42.847,-49.133,-186.401
-0.106,0.214,0.674,34.912,46.936,-77.148
-0.234,0.556,0.016,3.723,107.239,59.875
-0.060,0.922,-0.229,-32.715,119.141,133.118
0.162,1.068,-0.378,-39.001,98.999,124.451
0.215,1.055,-0.388,-29.175,60.974,62.439
0.060,0.930,-0.305,-20.752,28.076,-0.671
-0.170,0.694,-0.191,-19.348,15.503,-32.288
-0.278,0.452,-0.077,-17.639,13.367,-36.621
-0.262,0.361,-0.009,-10.498,10.681,-24.658
-0.181,0.384,-0.022,-2.136,10.925,-8.606
-0.091,0.517,-0.017,0.977,11.902,6.409
-0.027,0.656,-0.064,2.075,13.245,18.372
0.067,0.804,-0.099,2.380,13.000,20.996
0.186,0.911,-0.084,0.854,6.714,15.747
0.231,0.945,-0.101,-0.488,1.587,5.005
0.236,0.936,-0.082,-3.357,-2.380,-7.141
0.192,0.868,-0.097,-6.470,-8.057,-16.785
0.186,0.776,-0.089,-7.874,-11.719,-22.461
0.222,0.729,-0.046,-7.385,-14.893,-19.775
0.308,0.751,-0.012,-5.066,-14.038,-9.583
0.406,0.821,0.021,-3.357,-10.254,1.892
0.490,0.899,0.056,-1.526,-7.324,10.254
0.557,0.982,0.072,1.587,-5.371,12.329
0.589,1.051,0.081,4.639,-4.089,8.728
0.559,1.077,0.008,7.751,-1.282,0.732
0.493,1.103,-0.032,7.996,0.793,-8.362
0.419,1.135,-0.030,5.981,-0.366,-15.137
0.356,1.148,-0.059,2.625,-0.610,-18.250
0.330,1.091,0.004,-1.831,-1.953,-19.958
0.287,0.991,0.024,-7.568,-3.357,-17.151
0.302,0.907,0.037,-9.155,-2.625,-8.850
0.359,0.864,0.094,-10.071,-1.343,-0.305
0.410,0.860,0.089,-8.118,2.075,9.705
0.422,0.898,0.034,-2.563,6.775,13.855
0.398,0.950,-0.026,3.784,6.958,9.521
0.368,1.000,-0.060,8.911,2.869,0.854
0.363,1.036,-0.093,11.536,-0.854,-6.653
0.379,1.037,-0.115,9.583,-2.686,-13.306
0.371,0.997,-0.104,3.296,-3.235,-18.066
0.341,0.932,-0.097,-3.906,-2.502,-18.738
0.310,0.872,-0.094,-10.742,-0.854,-15.137
0.325,0.831,-0.078,-16.785,1.160,-8.911
0.328,0.801,-0.035,-18.372,1.160,-1.831
0.348,0.789,-0.025,-19.165,2.136,4.150
0.352,0.785,-0.006,-16.113,3.113,8.179
0.359,0.795,0.002,-11.353,2.625,7.568
0.358,0.827,-0.017,-4.883,1.831,4.395
0.335,0.845,-0.051,-0.671,0.061,0.122
0.309,0.868,-0.052,-0.183,-1.221,-2.747
0.309,0.875,-0.044,-2.441,-1.221,-1.892
0.304,0.852,-0.046,-5.615,0.610,0.610
0.295,0.836,-0.019,-7.996,1.526,2.136
0.305,0.819,0.020,-8.301,0.916,3.479
0.290,0.794,0.033,-4.883,2.258,3.906
0.267,0.777,0.013,0.244,5.066,3.235
0.276,0.799,0.001,4.028,4.028,3.296
0.295,0.839,-0.000,6.226,1.587,3.906
0.291,0.882,-0.005,6.836,1.465,3.601
0.300,0.925,-0.007,6.897,1.526,2.441
0.314,0.944,-0.016,6.531,1.953,0.183
0.315,0.946,-0.045,7.263,2.991,-2.930
0.298,0.957,-0.080,7.996,3.418,-5.310
0.265,0.982,-0.114,8.423,4.700,-6.287
0.237,0.995,-0.171,8.118,5.554,-5.798
0.237,0.995,-0.186,5.249,3.174,-5.249
0.256,0.994,-0.137,-1.343,0.793,-3.296
0.294,0.967,-0.086,-7.751,1.953,0.488
0.332,0.935,-0.041,-11.047,3.784,3.235
0.345,0.913,0.002,-11.353,4.028,1.709
0.328,0.905,-0.011,-6.287,4.639,-1.953
0.297,0.921,-0.042,-0.671,5.127,-5.005
0.281,0.944,-0.066,1.953,3.906,-5.798
0.284,0.948,-0.072,0.305,3.662,-5.005
0.290,0.937,-0.071,-3.174,4.028,-3.296
0.298,0.927,-0.068,-6.226,4.761,-1.709
0.305,0.928,-0.058,-8.606,5.493,-1.404
0.304,0.930,-0.062,-9.338,6.104,-2.380
0.297,0.928,-0.073,-9.399,6.653,-4.822
0.298,0.927,-0.073,-9.949,6.531,-7.385
0.302,0.920,-0.058,-10.803,5.493,-11.108
0.311,0.903,-0.043,-12.207,4.700,-14.160
0.328,0.885,-0.036,-12.451,4.944,-16.541
0.342,0.884,-0.021,-12.451,5.005,-17.639
0.369,0.891,0.000,-12.451,5.676,-17.334
0.403,0.902,0.025,-12.390,6.836,-17.090
0.423,0.919,0.045,-11.902,9.094,-17.456
0.442,0.932,0.054,-11.108,12.268,-18.799
0.456,0.937,0.050,-11.108,15.564,-20.996
0.456,0.946,0.041,-11.841,19.958,-23.560
0.443,0.948,0.034,-13.062,22.949,-26.550
0.428,0.934,0.004,-12.573,24.597,-28.870
1.066,0.090,-1.556,46.936,12.390,80.811
1.150,0.053,-1.697,49.927,19.897,102.112
1.269,-0.036,-1.925,56.396,31.738,122.314
1.355,-0.154,-2.209,66.345,46.204,138.000
1.318,-0.268,-2.551,77.820,60.608,151.245
1.143,-0.327,-2.918,89.966,73.364,166.748
0.849,-0.336,-3.194,101.929,81.238,189.758
0.589,-0.279,-3.342,109.131,74.219,217.468
0.505,-0.221,-3.369,107.727,41.687,242.798
0.466,-0.208,-3.339,101.257,-8.240,259.277
0.392,-0.179,-3.277,90.210,-57.617,262.268
0.115,-0.107,-3.187,64.575,-98.511,252.869
-0.277,0.038,-2.959,18.616,-138.184,236.267
-0.928,0.214,-2.378,-44.922,-176.819,219.482
-1.641,0.381,-1.298,-121.521,-205.505,204.651
-2.328,0.595,0.161,-196.594,-199.463,189.575
-3.365,0.485,1.500,-242.737,-126.038,184.998
-4.000,0.654,2.853,-232.544,-53.040,195.312
-4.000,1.444,3.981,-153.198,-77.332,256.287
-4.000,2.176,4.000,13.794,-164.673,360.718
-3.607,3.248,3.984,188.721,-236.755,456.787
-3.273,4.000,4.000,222.595,-272.583,549.561
-1.848,4.000,3.957,228.210,-252.686,592.834
0.656,4.000,2.667,254.761,-194.824,493.958
3.204,4.000,1.915,188.843,-192.932,302.063
4.000,3.256,2.104,74.219,-223.755,132.141
4.000,2.692,2.432,-37.659,-181.946,28.687
3.712,1.475,1.921,-136.230,-17.395,-70.251
1.263,0.288,1.249,-179.321,155.945,-215.149
-0.777,-0.099,0.709,-156.311,195.862,-304.016
-2.249,-0.300,-0.155,-76.965,153.809,-279.419
-2.920,-0.629,-1.189,-7.568,141.418,-198.120
-2.581,-0.660,-1.694,5.920,139.832,-91.675
-1.930,-0.455,-1.522,-20.630,104.614,24.597
-1.305,-0.230,-1.047,-52.002,57.495,97.595
-0.719,0.027,-0.639,-58.472,24.170,115.051
-0.353,0.268,-0.407,-41.199,3.113,101.135
-0.210,0.481,-0.305,-15.991,-7.812,67.139
-0.221,0.601,-0.291,4.456,-15.686,27.100
-0.235,0.672,-0.295,18.433,-24.292,-5.249
-0.268,0.736,-0.301,27.100,-30.334,-20.508
-0.246,0.786,-0.304,30.212,-31.799,-19.043
-0.153,0.792,-0.304,26.428,-31.250,-7.568
-0.048,0.799,-0.261,16.968,-29.419,6.165
0.014,0.823,-0.209,7.141,-25.146,16.724
0.001,0.839,-0.209,3.906,-19.775,19.897
0.011,0.855,-0.239,7.690,-19.653,14.832
0.011,0.894,-0.263,13.123,-24.658,8.606
0.012,0.954,-0.268,15.442,-27.161,5.981
0.014,0.968,-0.277,15.076,-26.489,2.869
0.048,0.948,-0.268,14.099,-26.611,-2.563
0.066,0.943,-0.254,15.076,-26.794,-6.042
0.054,0.971,-0.225,15.320,-25.452,-6.958
0.056,0.971,-0.216,15.442,-22.949,-5.432
0.078,0.932,-0.218,16.296,-19.287,-3.113
0.081,0.920,-0.240,15.198,-14.587,0.000
0.042,0.943,-0.286,13.611,-9.277,-0.427
-0.028,1.020,-0.374,14.587,-2.380,7.141
-0.010,1.046,-0.392,18.311,-6.897,6.531
-0.006,1.041,-0.404,13.428,-11.780,5.737
0.000,1.050,-0.397,3.906,-13.184,7.996
-0.004,1.080,-0.393,-7.812,-9.094,12.207
0.000,1.103,-0.363,-17.029,-6.042,13.794
0.043,1.093,-0.326,-20.447,-7.263,10.620
0.096,1.073,-0.302,-18.555,-10.071,6.165
0.119,1.048,-0.308,-16.052,-10.376,0.366
0.107,1.009,-0.328,-13.794,-9.766,-6.775
0.070,0.980,-0.309,-10.742,-12.207,-15.259
0.037,0.938,-0.292,-3.967,-15.198,-21.790
0.038,0.903,-0.294,5.249,-17.151,-24.597
0.040,0.899,-0.305,15.137,-18.311,-21.118
0.042,0.919,-0.298,19.958,-17.700,-13.123
0.072,0.942,-0.298,20.874,-15.991,-3.906
0.119,0.971,-0.286,19.287,-14.465,4.578
0.168,1.014,-0.277,16.357,-12.573,10.376
0.211,1.049,-0.266,13.489,-10.986,11.719
0.248,1.068,-0.257,11.414,-10.742,6.836
0.270,1.059,-0.254,8.911,-11.597,-2.441
0.247,1.019,-0.234,6.042,-12.512,-13.184
0.205,0.977,-0.188,2.258,-12.146,-20.874
0.195,0.918,-0.171,-0.305,-8.667,-22.461
0.183,0.882,-0.160,-2.014,-3.113,-19.470
0.175,0.886,-0.146,-3.174,3.052,-15.320
0.162,0.899,-0.151,-3.479,8.179,-11.353
0.161,0.905,-0.183,-2.014,11.414,-8.545
0.166,0.923,-0.225,-0.793,13.733,-7.507
0.158,0.945,-0.259,-0.793,15.991,-8.606
0.138,0.975,-0.281,-1.465,17.517,-10.681
0.114,0.997,-0.287,-3.052,17.883,-12.512
0.108,1.014,-0.285,-5.127,18.127,-13.855
0.110,1.021,-0.291,-6.775,17.944,-15.076
0.125,1.021,-0.294,-8.118,17.700,-17.517
0.137,1.025,-0.287,-9.827,17.639,-21.057
0.130,1.028,-0.279,-10.864,18.250,-24.597
0.128,1.022,-0.288,-10.010,19.653,-27.832
0.113,1.015,-0.303,-8.972,20.569,-31.006
0.102,1.011,-0.310,-7.935,19.165,-34.241
0.105,1.000,-0.318,-7.751,17.822,-37.659
0.108,0.967,-0.326,-8.545,17.090,-40.894
0.091,0.953,-0.319,-10.071,17.517,-42.053
0.084,0.946,-0.309,-11.597,18.860,-40.833
0.087,0.941,-0.312,-12.573,21.484,-37.842
0.094,0.939,-0.317,-13.062,24.109,-34.302
0.105,0.937,-0.321,-13.306,26.489,-31.494
0.114,0.928,-0.330,-12.390,28.320,-30.457
0.122,0.931,-0.333,-10.742,28.625,-31.311
0.117,0.947,-0.327,-8.545,28.442,-34.119
0.088,0.973,-0.320,-6.409,27.222,-38.086
0.068,0.991,-0.323,-4.822,23.987,-42.053
0.086,0.985,-0.330,-4.150,19.287,-45.288
0.110,0.982,-0.323,-5.005,16.846,-48.035
0.125,0.976,-0.308,-5.493,16.968,-50.781
0.141,0.967,-0.309,-5.554,17.944,-54.688
0.144,0.964,-0.317,-5.066,18.311,-59.021
0.137,0.969,-0.305,-5.676,17.822,-63.599
0.130,0.976,-0.285,-7.568,17.700,-66.833
0.124,0.989,-0.251,-10.376,18.127,-68.176
0.136,1.003,-0.212,-14.038,18.982,-68.237
0.157,1.015,-0.185,-17.456,21.362,-67.200
0.935,-0.589,-1.835,101.074,-23.499,-4.761
1.020,-0.683,-2.145,129.272,-11.169,28.015
1.033,-0.729,-2.400,155.029,3.601,74.463
0.992,-0.707,-2.575,181.213,24.170,122.498
0.944,-0.678,-2.721,211.914,46.082,155.273
0.933,-0.679,-2.891,238.647,57.922,167.603
0.843,-0.723,-3.096,261.414,55.359,164.307
0.921,-0.798,-3.347,279.907,41.443,156.189
1.063,-0.887,-3.625,283.447,16.663,152.649
1.041,-0.900,-3.769,269.592,-7.202,150.269
0.892,-0.819,-3.762,235.291,-18.799,140.930
0.638,-0.783,-3.801,192.505,-20.691,120.422
0.206,-0.865,-3.850,141.541,-32.471,83.374
-0.411,-0.935,-3.661,78.369,-63.293,29.907
-1.159,-0.899,-3.099,-4.089,-116.089,-23.315
-2.124,-0.998,-2.203,-107.300,-182.922,-66.101
-3.646,-1.341,-0.567,-217.102,-240.479,-83.557
-4.000,-1.557,1.878,-312.378,-289.551,-33.752
-4.000,-1.539,4.000,-251.648,-327.332,143.066
-4.000,-0.634,4.000,-12.390,-365.540,389.954
-4.000,1.818,4.000,243.286,-414.795,593.994
-3.870,4.000,4.000,386.292,-432.495,683.472
-2.467,4.000,4.000,439.209,-358.276,622.253
-1.786,4.000,4.000,356.812,-268.066,511.108
-0.125,4.000,3.578,260.376,-226.196,447.144
2.275,4.000,1.750,194.397,-208.435,425.598
4.000,4.000,0.692,65.430,-202.637,330.200
4.000,3.415,0.917,-103.149,-184.082,138.916
3.875,1.471,1.995,-259.888,-124.084,-103.516
1.212,0.168,2.820,-285.461,-48.767,-324.707
-0.776,-0.663,1.624,-136.475,29.785,-411.011
-2.022,-0.941,0.004,-4.822,103.333,-326.111
-2.605,-0.610,-0.706,13.611,136.108,-149.170
-2.132,-0.215,-0.814,-6.348,123.169,19.836
-1.502,0.110,-0.701,-4.517,68.604,120.911
-0.807,0.670,-0.529,16.724,20.264,155.518
-0.204,1.223,-0.521,33.691,-1.953,142.700
0.114,1.465,-0.498,33.752,-9.460,99.792
0.246,1.527,-0.303,30.945,-29.480,36.377
0.274,1.453,-0.190,35.217,-53.955,-27.832
0.190,1.214,-0.120,38.818,-65.247,-82.703
0.039,0.892,0.044,35.034,-70.557,-111.938
-0.024,0.572,0.201,29.968,-70.923,-107.971
-0.084,0.321,0.314,25.879,-65.125,-73.181
-0.001,0.256,0.348,21.179,-51.636,-15.808
0.207,0.356,0.253,16.296,-32.227,46.265
0.425,0.594,0.115,10.254,-14.526,94.238
0.580,0.901,0.015,6.104,-5.554,113.342
0.630,1.136,-0.065,8.789,-3.601,101.379
0.633,1.290,-0.130,15.625,-8.240,69.214
0.531,1.310,-0.202,19.470,-13.062,34.241
0.423,1.236,-0.226,15.015,-15.808,4.822
0.302,1.102,-0.154,3.540,-20.508,-11.353
0.264,0.909,-0.046,-7.446,-24.231,-12.329
0.272,0.781,0.041,-14.648,-23.071,-0.366
0.328,0.754,0.098,-14.771,-18.433,17.395
0.404,0.812,0.126,-9.460,-13.000,32.654
0.433,0.894,0.128,-0.244,-8.057,40.710
0.422,0.958,0.075,12.329,-5.249,36.865
0.458,1.031,-0.034,26.245,-7.996,23.193
0.444,1.110,-0.128,35.645,-13.733,7.263
0.393,1.139,-0.187,36.865,-18.311,-5.310
0.401,1.132,-0.150,30.029,-25.269,-12.146
0.429,1.089,-0.049,19.409,-31.799,-13.794
0.447,1.003,0.045,10.925,-31.555,-14.221
0.453,0.896,0.086,6.714,-26.978,-15.808
0.476,0.847,0.099,7.874,-23.193,-18.066
0.491,0.847,0.109,10.742,-20.691,-18.494
0.504,0.862,0.097,11.047,-16.113,-17.639
0.484,0.837,0.087,9.277,-11.719,-18.127
0.444,0.810,0.098,10.132,-10.437,-20.935
0.381,0.791,0.086,14.832,-9.888,-23.804
0.344,0.766,0.034,19.043,-9.460,-23.682
0.329,0.774,-0.001,18.921,-8.667,-17.395
0.315,0.815,-0.004,12.756,-7.812,-7.019
0.342,0.862,0.010,3.235,-5.920,4.089
0.381,0.880,0.034,-6.470,-3.967,13.062
0.428,0.884,0.052,-13.855,-2.991,16.968
0.438,0.877,0.052,-17.395,-2.197,15.320
0.396,0.868,0.059,-15.320,-2.014,7.751
0.344,0.874,0.063,-7.568,-4.639,-0.916
0.333,0.876,0.037,1.160,-7.385,-6.531
0.343,0.880,0.014,4.883,-8.911,-7.690
0.333,0.887,0.019,2.869,-8.423,-5.188
0.335,0.895,0.033,0.183,-6.714,-2.380
0.328,0.902,0.025,-2.136,-5.859,0.549
0.314,0.940,0.021,-2.747,-5.798,1.831
0.357,0.925,0.079,0.305,-7.751,1.953
0.379,0.922,0.066,-2.686,-8.118,-0.427
0.364,0.927,0.036,-5.005,-2.075,-2.075
0.347,0.902,0.050,-0.671,-2.808,-5.981
0.324,0.887,0.024,6.287,-5.554,-11.169
0.334,0.875,0.032,12.329,-6.714,-14.893
0.319,0.880,0.042,11.047,-7.446,-13.306
0.303,0.880,0.036,7.690,-5.127,-7.263
0.320,0.893,0.054,4.944,-3.174,-0.977
0.344,0.914,0.063,1.953,-1.038,4.883
0.380,0.941,0.068,0.366,0.916,7.874
0.405,0.967,0.084,-0.916,1.099,7.080
0.421,0.972,0.090,-0.793,0.671,2.441
0.432,0.977,0.084,1.282,1.343,-4.883
0.414,0.974,0.071,3.601,2.808,-12.268
0.363,0.952,0.041,6.104,4.883,-19.592
0.324,0.934,0.028,8.423,5.005,-25.452
0.304,0.922,0.043,9.644,4.089,-28.137
0.309,0.909,0.050,10.864,5.005,-27.893
0.347,0.890,0.073,12.268,6.836,-26.978
0.393,0.897,0.117,12.573,7.812,-26.855
0.383,0.880,0.106,15.808,8.423,-31.555
0.369,0.860,0.062,25.208,6.287,-44.434
0.345,0.878,0.031,33.447,0.549,-58.716
0.309,0.889,0.006,39.185,-5.554,-67.749
0.253,0.868,-0.030,40.283,-7.019,-69.824
0.235,0.852,-0.050,36.621,-6.775,-65.857
0.264,0.857,-0.029,30.518,-7.324,-56.885
0.314,0.867,0.030,23.193,-6.470,-47.241
0.383,0.871,0.101,17.212,-4.639,-41.260
0.477,0.870,0.173,15.015,-3.662,-40.100
0.560,0.866,0.235,14.587,-2.319,-42.908
1.634,-0.287,-1.701,61.279,37.476,80.322
1.830,-0.468,-2.092,87.463,62.317,101.929
1.753,-0.516,-2.415,107.910,93.323,128.906
1.433,-0.405,-2.583,120.117,120.544,158.875
1.138,-0.239,-2.749,126.831,134.033,183.777
1.094,-0.210,-2.984,145.691,124.695,192.688
1.156,-0.341,-3.263,178.406,95.276,193.176
1.174,-0.450,-3.478,208.252,58.411,187.866
1.158,-0.435,-3.547,221.436,26.306,177.979
1.007,-0.381,-3.589,221.680,0.183,163.025
0.683,-0.428,-3.779,219.116,-21.790,132.874
0.234,-0.464,-3.963,207.092,-44.128,80.383
-0.417,-0.427,-3.912,173.218,-86.426,23.926
-1.282,-0.358,-3.734,116.333,-156.311,-17.700
-2.454,-0.274,-3.083,35.889,-231.873,-38.635
-3.599,-0.300,-1.802,-88.623,-309.509,-22.949
-4.000,-0.268,0.354,-224.365,-364.136,65.918
-4.000,0.149,3.014,-294.373,-356.689,241.028
-4.000,1.425,4.000,-236.206,-340.088,469.299
-4.000,3.350,4.000,-88.013,-349.182,669.678
-2.315,4.000,4.000,95.154,-292.542,715.332
-0.635,4.000,4.000,264.465,-165.466,622.986
0.169,4.000,4.000,251.465,-108.154,508.545
1.605,4.000,3.034,235.229,-123.108,332.275
3.244,3.985,1.605,191.711,-130.493,94.543
3.146,2.201,1.349,50.781,-122.009,-113.037
1.790,0.658,2.015,-95.581,-69.763,-263.489
0.300,-0.593,2.269,-145.508,-7.080,-333.008
-0.656,-1.357,1.646,-64.331,49.255,-296.265
-1.210,-1.229,0.743,37.476,106.567,-179.687
-1.363,-0.609,-0.043,94.543,138.794,-47.363
-1.073,0.130,-0.461,106.323,138.733,46.692
-0.712,0.833,-0.690,96.802,109.192,86.121
-0.361,1.306,-0.975,72.815,77.332,82.031
-0.294,1.529,-1.053,29.175,58.105,58.350
-0.423,1.515,-0.799,-12.207,35.278,27.100
-0.462,1.325,-0.557,-26.489,9.521,-8.240
-0.437,1.014,-0.368,-25.085,-7.568,-40.222
-0.371,0.652,-0.022,-23.437,-22.705,-61.890
-0.317,0.345,0.302,-17.090,-32.227,-59.448
-0.146,0.221,0.463,-5.554,-26.245,-31.677
0.076,0.289,0.439,7.812,-9.094,7.019
0.182,0.494,0.354,18.005,6.531,40.100
0.200,0.755,0.203,25.574,16.724,59.998
0.190,0.976,-0.027,30.640,18.005,60.974
0.214,1.138,-0.196,28.809,9.399,48.462
0.197,1.259,-0.224,19.775,-2.686,32.776
0.183,1.319,-0.166,9.094,-9.460,19.287
0.212,1.305,-0.131,5.371,-11.292,8.240
0.202,1.211,-0.143,5.859,-11.536,-3.906
0.194,1.101,-0.129,7.812,-12.756,-18.127
0.175,0.986,-0.111,12.756,-14.709,-29.663
0.126,0.925,-0.082,16.357,-15.076,-31.372
0.105,0.882,-0.087,17.151,-12.634,-24.353
0.124,0.889,-0.103,16.174,-10.315,-12.390
0.155,0.955,-0.132,12.024,-7.568,-2.075
0.168,1.008,-0.155,7.019,-6.775,3.540
0.217,1.075,-0.141,3.723,-8.423,3.296
0.264,1.141,-0.077,0.671,-12.024,0.061
0.308,1.148,-0.026,0.305,-15.137,-4.761
0.320,1.140,0.018,0.977,-16.357,-9.277
0.291,1.098,0.032,2.258,-16.663,-13.245
0.260,1.049,0.030,5.188,-16.296,-16.907
0.208,0.986,0.045,9.827,-16.418,-19.531
0.197,0.954,0.009,14.709,-16.113,-18.066
0.196,0.954,-0.061,15.503,-10.681,-9.399
0.250,0.965,-0.075,12.085,-6.836,0.183
0.327,0.993,-0.039,8.057,-7.019,8.118
0.386,1.025,-0.009,5.066,-6.287,11.902
0.410,1.065,0.009,3.845,-4.822,10.803
0.378,1.072,-0.008,6.104,-4.944,5.798
0.349,1.069,-0.060,8.789,-4.395,-1.892
0.299,1.040,-0.085,8.362,-3.784,-9.705
0.260,1.010,-0.100,7.324,-4.028,-17.517
0.202,0.986,-0.078,7.141,-6.775,-18.799
0.229,0.982,-0.068,0.183,-4.822,-15.930
0.245,0.951,-0.058,-5.859,-0.671,-6.897
0.268,0.937,-0.028,-13.367,2.991,-0.305
0.269,0.921,0.025,-18.799,5.554,5.005
0.281,0.906,0.064,-19.836,7.263,6.897
0.293,0.888,0.083,-16.785,8.606,6.104
0.306,0.872,0.073,-11.780,8.057,1.648
0.304,0.871,0.044,-5.188,6.226,-4.089
0.284,0.880,0.017,-0.061,5.493,-8.545
0.258,0.894,0.010,1.404,4.639,-10.254
0.239,0.895,0.000,1.587,2.930,-8.362
0.216,0.884,-0.024,0.854,0.305,-5.066
0.215,0.900,-0.016,-1.282,-1.282,-0.427
0.206,0.911,0.011,-2.869,-1.892,4.822
0.221,0.892,-0.004,-0.977,-0.183,7.935
0.247,0.892,-0.019,1.343,1.831,8.728
0.253,0.902,-0.022,3.357,1.770,7.324
0.245,0.921,-0.051,5.798,1.526,4.150
0.225,0.942,-0.076,6.042,1.709,1.953
0.215,0.946,-0.083,4.761,1.038,0.916
0.217,0.954,-0.075,1.831,0.244,1.343
0.219,0.964,-0.050,-2.197,-0.305,3.357
0.241,0.976,-0.030,-5.066,-0.061,5.493
0.251,0.981,-0.010,-5.493,-0.244,5.554
0.265,0.981,-0.015,-3.784,-0.061,2.625
0.269,0.979,-0.037,-1.770,0.549,-2.197
0.251,0.964,-0.063,-0.977,0.671,-6.897
0.225,0.968,-0.061,-0.427,0.244,-10.742
0.202,0.960,-0.056,0.916,-0.549,-13.306
0.197,0.943,-0.046,2.258,-1.404,-13.062
0.212,0.930,-0.036,3.052,-1.221,-10.254
0.241,0.932,-0.025,2.563,-0.122,-6.714
0.281,0.937,-0.011,0.671,1.831,-4.517
0.283,0.939,0.014,-1.160,2.319,-4.395
0.279,0.938,0.010,1.465,3.296,-6.287
0.260,0.946,-0.014,6.287,3.357,-10.742
0.217,0.941,-0.033,9.399,2.747,-15.503
0.194,0.934,-0.065,10.620,4.272,-18.311
0.199,0.923,-0.075,9.644,4.272,-17.273
0.208,0.920,-0.080,6.409,1.770,-14.832
0.224,0.901,-0.063,2.014,-0.122,-12.390
0.234,0.907,0.025,-1.221,-1.282,-9.277
0.267,0.939,0.037,-0.061,0.610,-6.226
0.281,0.933,-0.019,4.150,4.517,-5.981
1.348,0.074,-1.450,27.222,-5.981,21.179
1.463,0.126,-1.603,35.217,-3.357,30.151
1.581,0.116,-1.829,48.706,-6.897,33.569
1.706,0.076,-2.182,63.171,-15.930,32.959
1.781,0.060,-2.623,74.341,-24.902,34.302
1.896,-0.084,-3.161,84.473,-23.254,38.940
1.953,-0.297,-3.520,74.524,-12.085,36.377
1.910,-0.403,-3.637,32.471,-4.578,24.109
1.866,-0.657,-3.524,-11.475,2.808,3.174
1.723,-1.030,-3.375,-35.461,15.869,-17.334
1.413,-1.417,-3.420,-44.128,41.626,-28.870
0.985,-1.725,-3.651,-39.001,72.693,-31.616
0.456,-1.860,-3.772,-30.518,84.351,-20.264
-0.245,-1.858,-3.623,-21.790,56.213,6.653
-1.108,-1.788,-3.411,2.686,3.662,54.443
-1.859,-1.622,-3.182,38.818,-53.467,126.953
-2.391,-1.415,-2.850,79.712,-122.620,206.726
-2.791,-1.083,-2.186,134.521,-213.440,263.184
-3.287,-0.615,-0.801,181.213,-336.670,274.841
-3.715,0.275,0.653,245.605,-458.618,227.600
-4.000,1.172,1.870,317.749,-521.973,163.391
-4.000,2.152,3.011,277.771,-516.785,155.457
-4.000,3.101,4.000,77.637,-502.502,240.051
-4.000,4.000,4.000,-139.465,-506.348,381.287
-3.613,4.000,4.000,-165.527,-484.985,494.507
-0.918,4.000,4.000,-61.096,-434.143,581.116
1.827,4.000,4.000,9.155,-385.254,590.027
4.000,4.000,4.000,85.083,-289.612,416.382
4.000,2.616,3.863,78.491,-196.594,133.301
4.000,1.145,3.150,2.075,-38.086,-102.173
2.004,0.067,2.543,-71.411,199.768,-245.422
-0.468,-0.238,1.567,-76.965,334.778,-261.536
-1.929,0.013,0.220,-25.879,338.196,-173.157
-2.437,0.282,-0.940,13.489,301.697,-79.468
-2.243,0.543,-1.340,16.907,238.220,-15.198
-1.853,0.675,-1.237,12.146,156.006,14.465
-1.281,0.647,-0.970,22.766,85.571,8.301
-0.719,0.633,-0.701,40.466,34.424,-12.878
-0.386,0.649,-0.473,49.438,6.836,-30.640
-0.321,0.676,-0.314,45.044,0.854,-38.391
-0.332,0.702,-0.193,36.621,-2.625,-39.856
-0.272,0.713,-0.054,29.175,-12.817,-36.194
-0.169,0.718,0.125,21.912,-21.362,-23.437
0.021,0.751,0.315,15.198,-22.644,-5.432
0.217,0.757,0.465,14.832,-21.423,8.240
0.339,0.804,0.536,21.179,-16.785,12.451
0.436,0.822,0.494,30.823,-13.245,2.258
0.493,0.789,0.408,36.194,-14.771,-17.761
0.519,0.723,0.312,32.776,-16.907,-34.607
0.490,0.664,0.239,22.278,-13.367,-38.879
0.432,0.680,0.201,11.536,-8.728,-31.616
0.425,0.751,0.179,3.296,-6.226,-18.066
0.452,0.818,0.207,-4.456,-6.531,-6.348
0.477,0.865,0.248,-9.338,-9.766,0.671
0.553,0.892,0.285,-10.742,-11.047,2.747
0.616,0.916,0.304,-10.925,-8.545,1.282
0.591,0.910,0.325,-10.254,-3.906,-2.991
0.542,0.876,0.289,-5.005,3.662,-10.315
0.505,0.823,0.217,3.418,7.996,-20.325
0.453,0.786,0.179,10.986,5.432,-27.405
0.436,0.747,0.163,14.832,2.502,-27.954
0.446,0.746,0.164,14.832,-0.549,-18.311
0.466,0.768,0.197,10.559,-2.197,-3.540
0.514,0.818,0.227,3.418,-0.244,11.230
0.557,0.826,0.240,-2.319,2.258,20.142
0.573,0.841,0.234,-5.066,2.991,20.508
0.573,0.860,0.228,-7.080,2.930,14.832
0.523,0.867,0.183,-7.690,5.493,6.531
0.467,0.880,0.152,-8.423,9.644,-0.488
0.433,0.894,0.137,-7.935,8.667,-2.930
0.441,0.888,0.101,-6.714,6.531,-2.563
0.445,0.889,0.094,-7.568,6.226,-0.366
0.443,0.899,0.089,-10.010,5.249,2.625
0.470,0.903,0.067,-13.306,3.540,4.272
0.558,0.855,0.146,-11.597,0.305,2.197
0.499,0.846,0.148,-9.155,-5.005,7.629
0.522,0.839,0.160,-14.526,1.160,7.812
0.487,0.834,0.155,-12.817,2.563,13.550
0.470,0.799,0.137,-11.353,3.174,9.949
0.445,0.762,0.119,-7.568,1.343,2.747
0.431,0.758,0.141,-5.371,-2.014,-3.357
0.410,0.757,0.175,-4.395,-4.333,-5.249
0.408,0.759,0.194,-2.991,-4.578,-4.395
0.429,0.751,0.173,-1.282,-3.845,-2.869
0.421,0.757,0.151,-0.732,-3.601,-0.793
0.406,0.770,0.144,-0.488,-3.784,0.671
0.417,0.775,0.146,0.549,-4.700,1.709
0.434,0.788,0.156,0.183,-5.554,3.235
0.447,0.811,0.177,-1.526,-5.920,5.615
0.442,0.825,0.194,-2.197,-5.188,6.714
0.429,0.817,0.207,-0.671,-3.601,5.554
0.461,0.828,0.194,2.380,0.122,3.906
0.449,0.840,0.204,4.944,2.075,3.052
0.454,0.856,0.211,5.798,3.601,3.479
0.474,0.864,0.216,5.737,2.441,4.089
0.467,0.859,0.218,5.310,1.526,2.686
0.458,0.851,0.208,4.822,2.380,-0.305
0.448,0.837,0.195,4.639,2.563,-3.357
0.418,0.834,0.191,4.761,2.136,-4.822
0.396,0.829,0.189,4.272,2.991,-4.700
0.388,0.830,0.192,3.906,4.456,-3.235
0.393,0.829,0.213,3.235,4.639,-0.488
0.409,0.829,0.220,2.563,4.333,3.113
0.422,0.810,0.243,1.709,5.432,6.409
0.421,0.817,0.262,2.563,6.714,8.545
0.427,0.822,0.250,5.432,8.484,7.935
0.427,0.831,0.233,8.728,9.827,5.493
0.412,0.849,0.215,10.986,9.644,1.892
0.374,0.864,0.180,13.245,8.911,-2.502
0.363,0.876,0.133,14.648,9.705,-6.287
0.365,0.881,0.104,11.780,8.667,-9.094
0.368,0.872,0.128,5.005,5.432,-9.399
0.383,0.864,0.155,-0.610,3.357,-6.958
0.396,0.853,0.187,-4.578,3.723,-3.540
0.409,0.845,0.198,-6.042,4.395,-0.061
0.401,0.831,0.203,-6.042,4.761,1.465
0.390,0.827,0.209,-5.432,4.150,1.526
0.397,0.826,0.197,-3.357,3.296,0.427
0.398,0.825,0.191,0.305,2.502,-2.930
0.447,0.088,-3.047,121.277,97.107,146.545
0.539,-0.010,-3.737,158.691,93.628,108.826
0.488,-0.221,-4.000,186.951,97.351,45.654
0.284,-0.401,-4.000,191.467,92.773,-2.075
-0.105,-0.507,-4.000,160.278,76.904,-9.827
-0.438,-0.654,-4.000,104.614,52.307,20.630
-0.603,-0.768,-4.000,50.903,16.846,84.045
-0.655,-0.914,-4.000,16.785,-18.127,154.907
-0.810,-0.931,-4.000,-0.916,-60.486,201.782
-1.299,-0.816,-3.746,6.104,-110.535,211.792
-1.893,-0.512,-2.903,41.199,-153.687,200.623
-2.619,-0.096,-1.741,93.750,-210.937,169.250
-3.359,0.653,-0.009,174.744,-303.162,97.961
-3.655,2.127,2.345,306.152,-431.763,-15.747
-3.069,3.968,4.000,378.357,-549.927,-120.544
-2.549,4.000,4.000,206.238,-565.063,-75.867
-0.295,4.000,4.000,-67.200,-427.734,179.077
2.187,3.888,4.000,-186.768,-207.581,441.406
2.557,4.000,4.000,-219.360,-140.076,460.144
3.551,3.651,4.000,-9.460,-92.407,214.111
3.179,2.006,4.000,150.330,-38.940,-114.075
1.294,0.312,3.447,195.984,35.034,-331.787
-0.226,-0.554,1.606,212.585,117.615,-369.446
-1.166,-0.294,-0.032,219.055,143.188,-289.307
-1.830,-0.224,-1.444,142.822,163.635,-146.484
-1.815,-0.301,-1.698,21.362,154.419,-12.634
-1.304,-0.208,-1.127,-37.170,98.267,76.660
-0.605,-0.164,-0.396,-37.231,57.312,110.657
-0.121,0.007,0.116,0.732,29.785,81.421
0.001,0.096,0.125,66.223,13.855,12.939
-0.162,0.168,-0.035,93.079,13.245,-40.344
-0.213,0.153,-0.090,92.163,10.559,-45.166
-0.329,0.263,-0.292,82.031,15.076,-17.517
-0.350,0.623,-0.488,69.824,10.742,15.320
-0.246,0.870,-0.448,37.659,-6.104,49.866
0.009,0.901,-0.131,-9.033,-15.747,83.801
0.310,0.837,0.225,-34.485,-18.250,105.591
0.501,0.803,0.349,-20.264,-13.245,95.215
0.471,0.887,0.254,14.221,-10.559,61.157
0.355,1.029,0.095,40.527,-8.606,31.128
0.245,1.131,-0.055,45.471,-6.348,22.095
0.208,1.207,-0.141,37.109,-7.385,26.733
0.204,1.258,-0.190,25.635,-8.606,30.640
0.204,1.249,-0.180,14.526,-14.099,26.245
0.202,1.200,-0.136,2.991,-23.865,20.935
0.253,1.124,0.032,-10.010,-29.785,20.142
0.347,1.007,0.196,-14.038,-31.311,18.799
0.391,0.973,0.291,-5.493,-26.489,13.306
0.387,0.976,0.302,9.033,-18.921,6.042
0.356,1.002,0.172,22.705,-11.475,-0.549
0.326,1.084,0.090,32.715,-7.019,-4.211
0.313,1.104,-0.012,29.480,-4.822,-7.507
0.307,1.093,-0.024,18.372,-4.883,-10.132
0.328,1.052,-0.018,7.019,-6.165,-9.949
0.337,1.039,-0.004,-4.517,-5.981,-7.324
0.341,1.010,0.051,-16.785,-5.249,-5.066
0.347,0.957,0.121,-24.841,-5.737,-4.150
0.339,0.910,0.140,-23.315,-4.089,-4.639
0.342,0.895,0.149,-14.038,-3.662,-6.042
0.339,0.903,0.164,-4.150,-4.395,-6.287
0.313,0.918,0.126,3.540,-4.395,-5.310
0.287,0.971,0.045,8.667,-3.052,-3.723
0.263,1.031,0.031,9.277,-4.028,-2.441
0.259,1.064,0.042,6.104,-6.104,-1.953
0.281,1.069,0.036,2.808,-7.019,-1.404
0.329,1.055,0.018,-0.916,-6.897,-1.831
0.343,1.064,0.044,-5.981,-7.141,-3.052
0.347,1.050,0.081,-11.475,-6.592,-3.845
0.350,1.018,0.108,-14.404,-5.676,-5.188
0.346,0.977,0.142,-12.817,-6.287,-8.240
0.365,0.963,0.155,-7.385,-6.409,-11.292
0.367,0.951,0.151,-2.441,-5.188,-13.123
0.372,0.917,0.143,0.549,-3.174,-14.465
0.385,0.895,0.145,1.343,-2.258,-13.367
0.389,0.875,0.141,0.977,-2.197,-11.108
0.385,0.866,0.129,0.671,-1.282,-9.033
0.373,0.874,0.121,0.549,-0.793,-7.446
0.365,0.889,0.097,0.305,-0.854,-6.958
0.360,0.901,0.071,-2.686,-0.854,-6.409
0.371,0.907,0.075,-7.385,-1.770,-3.967
0.385,0.927,0.110,-12.573,-2.136,-0.610
0.401,0.946,0.142,-15.564,-1.648,1.099
0.407,0.939,0.147,-15.015,-0.061,-1.526
0.414,0.943,0.138,-11.536,1.953,-5.676
0.401,0.947,0.148,-9.460,3.784,-9.766
0.384,0.943,0.137,-7.874,5.981,-12.146
0.373,0.914,0.134,-7.019,7.202,-14.282
0.365,0.892,0.129,-5.676,7.446,-15.808
0.355,0.879,0.120,-4.028,8.301,-15.930
0.353,0.878,0.114,-3.174,9.949,-15.320
0.346,0.888,0.118,-3.906,10.803,-14.587
0.360,0.897,0.125,-5.371,10.193,-13.611
0.382,0.900,0.121,-7.324,9.766,-13.550
0.380,0.907,0.135,-9.644,10.437,-14.099
0.371,0.914,0.141,-10.681,11.841,-15.076
0.366,0.917,0.147,-10.620,14.343,-16.907
0.363,0.918,0.131,-10.010,17.029,-18.982
0.360,0.917,0.112,-9.949,18.005,-21.240
0.349,0.925,0.106,-10.559,18.738,-23.804
0.334,0.929,0.111,-11.108,19.409,-25.757
0.325,0.926,0.114,-11.475,20.752,-26.855
0.310,0.917,0.101,-12.573,21.790,-26.733
0.286,0.904,0.062,-13.794,22.888,-24.780
0.283,0.909,0.027,-16.296,23.621,-21.240
0.291,0.913,0.018,-20.386,22.644,-17.517
0.306,0.888,0.022,-23.499,20.691,-16.357
0.320,0.890,0.028,-24.414,20.325,-16.724
0.317,0.894,0.028,-24.048,20.264,-18.860
0.321,0.890,0.036,-22.583,19.165,-22.400
0.347,0.873,0.031,-20.142,19.714,-26.489
0.367,0.851,0.020,-16.663,21.851,-30.396
0.366,0.836,0.024,-14.893,24.170,-32.471
0.381,0.826,0.015,-13.794,26.001,-31.982
0.388,0.827,0.013,-13.611,26.733,-30.334
0.398,0.834,0.018,-13.733,28.137,-28.809
0.409,0.838,0.021,-14.221,29.724,-28.442
0.420,0.833,0.021,-14.465,30.640,-28.992
0.436,0.837,0.020,-14.465,30.396,-30.273
0.451,0.858,0.022,-15.625,29.846,-30.762
1.066,0.653,-1.399,114.868,-30.151,54.932
1.247,0.749,-1.498,125.183,-33.752,52.246
1.527,0.821,-1.720,140.015,-30.273,54.504
1.880,0.818,-2.104,169.983,-14.771,66.345
2.019,0.814,-2.534,208.130,11.414,86.670
1.920,0.825,-2.864,225.769,34.302,104.858
1.746,0.825,-3.047,214.172,50.903,116.760
1.481,0.829,-3.162,188.354,70.618,114.868
1.283,0.704,-3.360,167.542,95.947,100.525
1.131,0.348,-3.833,164.734,122.375,82.458
0.907,-0.160,-4.000,159.668,150.330,60.974
0.523,-0.284,-4.000,117.126,180.054,31.677
-0.156,-0.485,-3.772,66.162,212.341,-0.305
-1.193,-0.531,-3.079,31.616,251.343,-42.786
-3.140,-0.593,-2.513,62.378,282.837,-120.789
-4.000,-1.109,-2.136,133.728,212.036,-199.768
-4.000,-1.223,-0.194,220.276,-134.277,-239.624
-4.000,-0.011,2.637,326.782,-649.109,-215.698
-4.000,2.337,4.000,368.774,-911.865,-100.647
-3.142,3.135,4.000,157.349,-805.481,175.903
-0.782,2.976,4.000,-123.840,-483.643,529.480
2.924,2.360,4.000,-179.443,-299.072,740.173
4.000,3.532,4.000,-20.508,-293.945,690.002
4.000,4.000,4.000,115.662,-242.126,428.589
4.000,3.495,2.917,175.415,-125.244,70.068
3.960,1.827,1.551,98.450,-35.522,-226.746
1.735,0.734,1.613,-31.738,48.889,-351.990
-0.476,-0.123,1.204,-89.172,122.742,-329.651
-1.852,-0.644,0.170,-96.558,174.500,-221.436
-2.226,-0.645,-0.440,-95.337,182.556,-103.394
-1.988,-0.351,-0.545,-65.063,142.090,-12.695
-1.478,-0.058,-0.499,-20.142,92.285,32.959
-1.049,0.177,-0.329,21.606,48.218,25.757
-0.665,0.453,-0.113,59.692,14.099,-8.606
-0.501,0.682,-0.101,79.590,-1.587,-34.973
-0.474,0.798,-0.261,73.730,-5.249,-48.218
-0.451,0.817,-0.330,46.753,-15.808,-47.424
-0.373,0.773,-0.248,6.226,-27.588,-25.635
-0.188,0.704,-0.114,-28.320,-34.912,4.456
0.033,0.622,0.049,-46.814,-43.274,26.978
0.265,0.546,0.285,-48.645,-49.683,32.776
0.467,0.499,0.469,-31.555,-47.913,25.879
0.621,0.495,0.439,-4.028,-37.292,14.709
0.668,0.518,0.412,13.428,-27.283,6.531
0.608,0.584,0.359,21.851,-16.357,3.967
0.574,0.723,0.238,28.870,-3.479,2.563
0.516,0.887,0.118,31.921,1.465,-1.221
0.481,1.010,0.020,27.832,2.136,-5.554
0.461,1.042,-0.047,15.259,0.916,-9.583
0.423,1.054,-0.067,-0.732,-0.977,-12.512
0.417,1.048,-0.040,-15.137,-3.906,-13.123
0.460,0.993,0.007,-27.283,-6.409,-11.108
0.489,0.887,0.074,-33.508,-5.859,-10.071
0.458,0.785,0.161,-25.391,-7.141,-15.381
0.475,0.691,0.163,-8.423,-7.263,-27.405
0.431,0.664,0.115,11.475,-6.836,-33.630
0.390,0.698,0.109,25.269,-6.287,-33.386
0.372,0.749,0.089,30.151,-6.531,-25.146
0.386,0.814,0.086,27.283,-6.531,-11.292
0.416,0.892,0.079,20.203,-6.897,3.235
0.464,0.945,0.078,12.024,-5.676,12.939
0.497,0.990,0.098,3.235,-4.028,14.587
0.488,1.017,0.091,-2.075,-3.601,9.888
0.489,1.032,0.101,-3.967,-2.747,0.732
0.492,1.017,0.115,-3.967,-4.211,-8.545
0.451,0.974,0.113,-1.770,-7.385,-16.846
0.439,0.936,0.131,2.686,-8.972,-23.987
0.451,0.924,0.136,8.728,-11.230,-27.161
0.469,0.914,0.135,11.963,-13.062,-25.574
0.497,0.890,0.145,10.071,-12.024,-19.165
0.524,0.859,0.174,5.432,-10.132,-9.949
0.562,0.861,0.171,3.235,-7.812,-3.296
0.575,0.880,0.155,3.052,-4.517,-0.610
0.541,0.901,0.140,2.258,-1.709,-1.831
0.501,0.923,0.130,1.343,0.671,-5.310
0.467,0.933,0.140,0.000,0.610,-10.437
0.444,0.929,0.163,-1.587,-1.282,-15.930
0.452,0.891,0.160,-1.709,-1.404,-20.325
0.464,0.841,0.161,-2.930,-0.549,-22.583
0.459,0.809,0.183,-4.700,-0.244,-21.912
0.467,0.786,0.189,-4.395,-0.061,-18.921
0.470,0.777,0.174,-3.296,1.099,-14.465
0.455,0.775,0.163,-2.563,3.296,-8.972
0.421,0.789,0.132,-1.831,6.592,-4.761
0.402,0.808,0.105,-1.099,7.568,-1.892
0.405,0.828,0.101,-0.732,6.775,-0.366
0.418,0.851,0.120,-0.854,6.042,-0.671
0.454,0.862,0.132,-1.099,5.981,-2.930
0.484,0.863,0.142,-2.747,4.700,-5.737
0.499,0.862,0.160,-4.883,3.723,-9.338
0.500,0.855,0.178,-6.287,4.395,-12.634
0.490,0.826,0.192,-5.676,5.127,-15.747
0.480,0.803,0.196,-2.502,5.066,-18.005
0.462,0.801,0.201,1.465,5.676,-18.188
0.466,0.813,0.183,5.249,7.629,-16.052
0.477,0.829,0.155,7.629,9.460,-13.062
0.485,0.865,0.147,7.263,10.803,-8.179
0.488,0.900,0.145,5.981,12.268,-4.395
0.502,0.927,0.145,3.723,14.282,-1.587
0.517,0.935,0.149,0.122,15.747,0.061
0.532,0.926,0.167,-3.479,16.968,-0.061
0.542,0.907,0.180,-6.348,17.883,-1.587
0.547,0.885,0.190,-8.057,18.799,-4.272
0.540,0.878,0.200,-9.338,20.874,-7.080
0.531,0.866,0.199,-9.460,23.987,-11.658
0.510,0.867,0.166,-8.179,26.306,-16.174
0.503,0.862,0.145,-8.179,27.527,-20.813
0.474,0.861,0.118,-11.108,30.823,-22.766
